aX,aY,aZ,gX,gY,gZ
0.814,0.957,-0.884,102.600,-58.228,7.935
0.814,0.946,-0.957,93.323,-64.453,-0.244
0.790,0.939,-0.946,82.458,-70.618,-8.484
0.703,0.906,-0.876,60.364,-74.768,-27.161
0.628,0.851,-0.770,50.354,-79.285,-33.508
0.309,0.729,-0.529,42.664,-78.796,-47.363
0.305,0.517,-0.500,50.842,-84.778,-41.565
0.113,0.673,-0.392,58.777,-77.881,-49.927
0.050,0.697,-0.454,68.604,-76.721,-43.213
0.257,0.782,-0.697,73.059,-54.138,-31.433
0.353,0.874,-0.836,72.632,-45.837,-26.794
0.443,0.867,-0.842,62.378,-41.138,-28.137
0.435,0.882,-0.789,61.157,-35.950,-30.151
0.393,0.933,-0.916,60.120,-25.940,-29.358
0.474,0.939,-1.036,48.584,-23.682,-24.902
0.506,0.893,-0.940,39.917,-29.907,-24.475
0.414,0.843,-0.831,38.879,-19.714,-25.940
0.420,0.849,-0.805,40.100,-13.489,-28.564
0.385,0.858,-0.753,40.588,-14.526,-30.762
0.385,0.891,-0.725,37.476,-10.498,-30.029
0.562,0.881,-0.642,31.677,-0.305,-24.841
0.637,0.877,-0.630,31.433,3.662,-24.048
0.604,0.935,-0.668,29.968,14.893,-23.376
0.861,1.028,-0.806,19.165,38.391,-12.634
1.017,1.035,-0.803,11.902,40.039,-13.123
1.017,0.994,-0.664,4.456,46.021,-26.794
1.043,1.030,-0.655,5.310,46.814,-38.330
1.085,0.996,-0.620,11.169,32.227,-64.087
0.997,1.001,-0.677,18.066,29.480,-79.407
0.866,1.033,-0.858,21.423,23.682,-95.398
0.832,0.999,-0.814,10.437,-0.793,-110.474
0.668,0.950,-0.795,8.789,-3.540,-122.437
0.438,1.064,-0.997,4.028,17.639,-129.211
0.405,1.079,-1.008,-2.808,19.043,-127.625
0.340,1.095,-0.982,-19.043,26.550,-124.084
0.383,1.105,-0.968,-25.696,35.767,-122.009
0.338,1.112,-0.962,-37.109,37.903,-124.451
-0.136,0.769,-1.020,-20.935,38.879,-161.255
0.075,1.070,-0.893,-40.527,28.809,-149.292
-0.085,1.023,-0.930,-38.025,33.325,-151.855
-0.101,0.979,-0.864,-52.124,13.184,-152.588
-0.010,1.002,-0.723,-55.603,10.315,-149.536
-0.060,1.015,-0.815,-61.523,21.484,-145.081
-0.055,1.056,-0.919,-69.702,17.700,-143.555
-0.005,1.026,-0.756,-87.708,12.573,-134.521
-0.109,1.040,-0.814,-97.900,15.930,-132.568
-0.296,0.992,-0.887,-110.291,5.127,-135.925
-0.347,0.942,-0.730,-120.483,-6.958,-140.747
-0.353,0.838,-0.512,-110.352,-3.967,-139.160
-0.454,0.874,-0.471,-103.882,9.888,-140.320
-0.470,0.875,-0.515,-105.652,20.142,-141.968
-0.421,0.879,-0.417,-106.812,20.752,-136.292
-0.581,0.878,-0.279,-99.243,61.218,-116.760
-0.561,0.920,-0.373,-90.210,81.543,-104.614
-0.583,1.007,-0.460,-86.609,84.717,-93.750
-0.545,1.010,-0.549,-87.341,75.500,-88.562
-0.462,1.053,-0.677,-96.924,52.124,-89.539
-0.520,1.032,-0.619,-102.600,35.889,-88.074
-0.537,0.974,-0.516,-114.441,9.033,-80.933
-0.542,0.940,-0.462,-117.065,-4.272,-75.500
-0.702,0.817,-0.253,-117.065,0.183,-65.857
-0.746,0.862,-0.229,-113.525,20.813,-62.378
-0.702,0.876,-0.291,-108.765,70.801,-40.710
-0.634,0.876,-0.314,-105.591,87.219,-26.855
-0.647,0.928,-0.318,-100.037,103.394,-22.705
-0.727,0.912,-0.343,-95.032,96.313,-27.527
-0.720,0.982,-0.284,-89.539,74.829,-36.621
-0.747,1.022,-0.334,-87.219,63.171,-40.588
-0.667,1.000,-0.349,-93.445,27.527,-50.903
-0.661,0.994,-0.348,-95.337,9.277,-55.115
-0.659,1.048,-0.513,-100.708,-7.935,-55.969
-0.658,1.035,-0.510,-105.103,-9.705,-52.124
-0.882,0.959,-0.375,-110.229,11.902,-37.170
-0.949,0.960,-0.362,-108.643,35.217,-26.428
-0.995,0.983,-0.336,-102.844,54.932,-10.498
-0.964,0.953,-0.256,-101.746,51.636,-6.714
-0.944,0.883,-0.066,-93.201,40.344,-5.554
-0.951,0.875,0.009,-86.670,34.912,-5.371
-0.922,0.881,0.076,-73.914,24.231,2.075
-0.869,0.902,0.040,-67.871,23.315,7.629
-0.810,0.913,-0.022,-63.782,19.409,11.963
-0.830,0.979,-0.253,-60.059,21.301,18.738
-0.829,1.028,-0.423,-62.561,27.466,19.958
-0.704,0.958,-0.376,-78.186,18.616,20.386
-0.719,0.942,-0.281,-81.665,18.921,20.508
-0.742,0.913,-0.158,-82.764,27.466,21.606
-0.773,0.890,-0.127,-80.078,30.151,22.278
-0.779,0.909,-0.095,-75.012,23.315,21.729
-0.743,0.900,-0.074,-72.815,20.203,23.254
-0.718,0.857,-0.015,-70.251,16.663,21.851
-0.701,0.827,0.071,-55.298,15.930,21.667
-0.724,0.866,-0.023,-48.706,17.822,20.508
-0.677,0.903,-0.189,-46.082,15.259,20.508
-0.632,0.931,-0.240,-50.537,11.902,22.400
-0.569,0.872,-0.201,-59.937,0.244,24.597
-0.541,0.872,-0.213,-62.439,3.479,26.978
-0.487,0.882,-0.230,-59.631,10.071,27.283
-0.500,0.873,-0.209,-60.547,5.676,25.269
-0.496,0.848,-0.169,-62.439,-0.122,22.827
-0.519,0.818,-0.054,-61.035,-13.489,20.020
-0.552,0.798,0.001,-59.204,-21.057,19.165
-0.602,0.751,0.039,-51.392,-36.987,19.287
-0.594,0.739,0.011,-47.546,-40.955,18.982
-0.562,0.748,-0.105,-45.471,-50.415,18.005
-0.527,0.763,-0.132,-44.556,-52.979,19.775
-0.484,0.744,-0.110,-43.945,-52.551,24.902
-0.491,0.734,-0.105,-41.748,-48.584,28.259
-0.455,0.729,-0.087,-40.894,-48.889,34.241
-0.463,0.718,-0.077,-38.635,-53.345,35.645
-0.487,0.681,-0.045,-37.354,-63.293,37.415
-0.500,0.672,-0.023,-38.147,-68.237,37.781
-0.513,0.650,-0.017,-34.912,-74.036,39.368
-0.516,0.622,-0.021,-32.776,-77.026,41.016
-0.497,0.602,-0.070,-30.334,-79.712,44.312
-0.485,0.584,-0.081,-30.945,-81.604,45.959
-0.393,0.560,-0.091,-29.480,-88.135,48.645
-0.337,0.561,-0.089,-26.611,-87.646,50.232
-0.247,0.607,-0.082,-21.545,-82.642,50.415
-0.268,0.642,-0.107,-18.616,-77.576,50.415

1.029,0.831,-0.714,84.167,-31.433,18.127
1.088,0.874,-0.817,80.627,-16.968,18.555
1.112,0.935,-0.888,76.965,7.141,19.653
1.238,1.002,-0.878,66.772,38.940,15.625
1.280,0.984,-0.778,62.988,28.076,-0.061
1.118,1.047,-0.762,68.115,10.315,-41.321
1.029,1.090,-0.747,67.078,9.949,-53.650
0.946,1.078,-0.743,64.819,8.972,-63.171
0.839,1.064,-0.837,63.110,8.484,-81.421
0.758,1.025,-0.827,61.951,12.146,-92.102
0.512,1.074,-0.886,63.599,31.982,-107.178
0.406,1.018,-0.892,58.411,44.128,-102.783
0.145,1.013,-0.878,48.889,67.444,-100.403
0.038,1.052,-0.885,43.945,75.256,-95.337
-0.031,1.055,-0.905,34.485,81.360,-86.060
0.071,0.958,-0.675,19.104,79.163,-79.346
0.049,0.994,-0.637,16.907,74.951,-81.116
0.011,1.074,-0.684,20.935,61.951,-87.769
0.004,1.100,-0.683,17.700,47.058,-89.478
0.125,1.124,-0.593,16.052,30.090,-89.783
0.145,1.175,-0.643,13.123,36.133,-86.975
0.166,1.241,-0.716,11.963,44.556,-82.214
0.020,1.105,-0.811,4.578,43.945,-82.825
0.042,1.260,-0.708,-3.357,46.326,-88.562
0.097,1.272,-0.656,-13.550,67.078,-72.449
0.104,1.238,-0.537,-17.944,79.468,-68.542
0.081,1.236,-0.509,-13.733,83.923,-70.190
0.106,1.226,-0.491,-12.817,81.726,-73.242
0.054,1.260,-0.557,-13.367,69.519,-85.693
0.049,1.267,-0.573,-16.907,65.735,-89.539
0.043,1.285,-0.558,-20.142,61.523,-92.896
0.110,1.302,-0.522,-24.963,52.124,-95.398
0.199,1.301,-0.527,-28.015,49.988,-98.755
0.292,1.296,-0.572,-36.194,31.250,-114.868
0.279,1.249,-0.560,-37.781,20.203,-127.563
0.112,1.173,-0.519,-42.297,8.545,-152.649
-0.068,1.209,-0.563,-44.067,12.573,-157.227
-0.253,1.217,-0.547,-57.861,32.471,-147.217
-0.264,1.242,-0.534,-59.998,40.405,-135.437
-0.265,1.204,-0.475,-72.754,58.044,-113.403
-0.210,1.176,-0.446,-73.730,68.481,-101.685
-0.175,1.139,-0.433,-75.745,69.824,-98.022
-0.173,1.114,-0.462,-77.087,65.979,-99.304
-0.114,1.016,-0.475,-81.970,60.364,-104.736
-0.192,1.014,-0.393,-85.083,59.387,-109.619
-0.301,0.927,-0.299,-89.722,54.016,-114.075
-0.449,0.941,-0.238,-89.783,49.316,-110.962
-0.590,0.942,-0.163,-88.318,68.665,-84.900
-0.582,0.948,-0.147,-86.975,80.383,-67.444
-0.521,0.921,-0.131,-79.285,97.778,-40.588
-0.516,0.976,-0.207,-76.416,106.079,-26.855
-0.343,0.963,-0.247,-72.083,114.014,-12.268
-0.338,0.946,-0.229,-70.923,112.976,-9.521
-0.293,1.012,-0.385,-70.435,122.559,-6.042
-0.161,1.039,-0.467,-74.158,124.756,-4.028
-0.162,0.994,-0.372,-80.750,123.901,-12.695
-0.203,1.041,-0.288,-80.261,122.131,-18.005
-0.255,1.025,-0.154,-72.449,113.281,-28.320
-0.216,1.059,-0.172,-63.843,105.408,-33.264
-0.201,1.013,-0.174,-50.232,75.562,-45.227
-0.250,0.990,-0.154,-41.809,58.960,-53.345
-0.219,0.997,-0.375,-26.306,33.936,-69.458
-0.229,1.011,-0.417,-23.926,20.752,-77.881
-0.299,1.023,-0.515,-25.940,10.986,-86.304
-0.280,1.051,-0.538,-28.931,13.245,-88.562
-0.481,1.031,-0.518,-36.194,37.842,-82.031
-0.604,1.223,-0.734,-36.499,60.974,-74.036
-0.558,1.126,-0.738,-53.040,59.631,-68.604
-0.589,1.132,-0.682,-59.814,53.284,-70.679
-0.581,1.086,-0.570,-69.946,45.227,-72.998
-0.622,1.039,-0.520,-72.815,35.950,-77.087
-0.631,0.975,-0.327,-77.515,18.066,-78.186
-0.704,0.942,-0.220,-77.881,9.521,-77.087
-0.792,0.924,-0.145,-71.472,2.075,-67.383
-0.918,0.927,-0.209,-65.857,4.089,-60.730
-0.911,0.927,-0.340,-64.819,4.211,-54.138
-0.916,0.933,-0.527,-73.608,-2.686,-44.250
-0.944,0.916,-0.581,-79.651,-4.089,-38.147
-0.927,0.863,-0.550,-97.168,5.127,-23.132
-0.921,0.842,-0.427,-102.966,8.911,-16.052
-0.900,0.776,-0.186,-107.056,16.663,-3.479
-0.898,0.777,-0.109,-104.004,18.555,2.747
-0.821,0.733,-0.001,-95.459,10.132,9.460
-0.798,0.726,0.050,-87.219,-0.488,8.728
-0.784,0.729,0.092,-71.167,-19.897,6.165
-0.753,0.722,0.062,-62.073,-25.635,7.324
-0.732,0.755,-0.049,-57.739,-28.137,7.202
-0.641,0.796,-0.261,-57.922,-36.316,9.399
-0.634,0.797,-0.252,-64.453,-40.100,12.085
-0.605,0.790,-0.193,-71.594,-33.936,18.799
-0.595,0.801,-0.178,-74.829,-28.320,22.644
-0.598,0.790,-0.117,-74.402,-23.193,27.283
-0.570,0.802,-0.103,-73.792,-23.560,29.236
-0.533,0.750,-0.081,-72.754,-28.870,30.212
-0.520,0.745,-0.053,-71.228,-35.156,28.809
-0.545,0.746,0.001,-63.110,-36.560,28.137
-0.510,0.736,-0.039,-60.486,-42.908,28.198
-0.459,0.747,-0.023,-56.519,-51.575,28.687
-0.461,0.768,-0.000,-56.519,-54.199,28.198
-0.486,0.784,-0.003,-53.223,-51.575,31.677
-0.476,0.794,-0.046,-51.331,-50.598,34.119
-0.447,0.801,-0.049,-52.490,-48.584,36.804
-0.429,0.761,-0.023,-52.673,-58.105,35.095
-0.437,0.743,-0.016,-49.316,-64.087,36.133
-0.436,0.744,-0.017,-46.753,-64.392,37.781
-0.450,0.781,-0.075,-41.748,-58.411,40.161
-0.404,0.799,-0.085,-40.894,-64.331,40.649
-0.433,0.787,-0.073,-41.626,-66.345,40.161
-0.421,0.770,0.001,-40.039,-69.275,41.992
-0.424,0.756,0.040,-38.086,-69.885,43.457
-0.488,0.784,-0.032,-27.832,-59.998,44.067
-0.447,0.746,-0.051,-30.884,-69.153,47.485
-0.394,0.745,-0.044,-33.691,-74.280,50.476
-0.364,0.739,-0.035,-31.921,-76.050,52.734
-0.333,0.763,-0.027,-30.457,-70.740,58.899
-0.272,0.773,-0.056,-30.701,-77.576,61.279
-0.190,0.786,-0.059,-31.555,-77.942,63.477
-0.170,0.793,-0.068,-29.724,-80.017,62.378
-0.151,0.777,-0.075,-22.766,-83.496,56.702

1.080,0.884,-0.639,35.461,18.616,37.781
1.011,0.855,-0.518,20.203,9.155,18.616
0.885,0.811,-0.343,8.179,-4.578,-1.343
0.669,0.773,-0.155,4.639,-20.874,-26.794
0.595,0.718,-0.014,4.333,-35.583,-36.011
0.418,0.619,0.146,15.320,-61.279,-61.096
0.225,0.627,0.125,23.804,-72.449,-73.364
0.045,0.602,0.131,29.846,-83.984,-80.688
-0.399,0.600,0.188,41.809,-89.233,-73.669
-0.513,0.677,0.115,50.232,-68.542,-54.016
-0.124,0.789,-0.206,55.420,-23.743,-2.014
0.101,0.809,-0.305,52.673,-13.489,10.864
0.418,0.834,-0.415,40.222,-12.634,10.986
0.521,0.799,-0.274,31.250,-27.710,3.662
0.538,0.733,-0.134,31.311,-41.992,-12.390
0.477,0.696,-0.019,35.461,-34.729,-15.686
0.441,0.673,0.025,38.879,-33.325,-18.433
0.376,0.604,0.076,55.786,-37.598,-24.597
0.331,0.642,0.068,65.735,-41.809,-28.748
0.335,0.772,-0.074,82.947,-46.753,-27.405
0.344,0.872,-0.223,88.379,-40.466,-23.560
0.501,0.889,-0.362,83.130,-12.390,-12.756
0.483,0.959,-0.360,78.003,-0.916,-13.000
0.473,0.936,-0.331,72.693,14.282,-23.071
0.395,0.888,-0.241,73.120,10.376,-27.344
0.355,0.852,-0.266,74.463,6.287,-29.968
0.327,0.818,-0.238,81.787,3.479,-36.133
0.246,0.818,-0.244,84.717,-1.465,-37.292
0.308,0.888,-0.366,93.994,-5.127,-30.884
0.400,0.926,-0.437,95.581,-4.150,-25.146
0.516,1.024,-0.519,94.421,5.981,-18.799
0.760,1.079,-0.590,84.778,38.940,-10.132
0.856,1.087,-0.589,79.346,52.917,-10.315
0.847,1.008,-0.435,72.571,59.387,-23.560
0.788,0.986,-0.389,72.754,56.824,-31.250
0.742,0.954,-0.384,74.707,49.683,-43.396
0.690,0.916,-0.411,78.003,44.556,-50.293
0.651,0.892,-0.414,82.397,40.527,-56.580
0.551,0.885,-0.457,87.830,35.156,-69.824
0.464,0.887,-0.498,92.224,24.902,-77.820
0.323,0.972,-0.672,92.041,22.156,-81.421
0.346,1.009,-0.717,88.135,26.489,-77.759
0.316,1.029,-0.777,77.942,44.434,-64.514
0.351,1.134,-0.919,68.604,57.617,-56.091
0.436,1.212,-0.948,60.608,64.087,-51.453
0.472,1.124,-0.790,45.410,60.364,-51.086
0.416,1.137,-0.774,44.678,64.453,-50.842
0.472,1.131,-0.760,41.748,69.885,-52.490
0.469,1.147,-0.771,43.457,59.021,-59.326
0.423,1.128,-0.749,46.204,42.419,-74.707
0.446,1.102,-0.703,48.096,41.321,-79.529
0.485,1.352,-0.753,51.636,36.255,-89.050
0.279,1.155,-0.781,49.133,20.081,-105.042
0.312,1.251,-0.979,47.974,30.151,-103.455
0.357,1.195,-0.938,31.128,62.439,-93.994
0.376,1.197,-0.902,22.522,69.946,-93.140
0.439,1.208,-0.906,16.052,90.942,-91.797
0.468,1.163,-0.738,11.902,90.515,-97.229
0.485,1.135,-0.701,11.108,93.445,-102.966
0.453,1.079,-0.661,10.986,84.412,-118.286
0.436,1.044,-0.623,12.207,76.843,-129.333
0.270,1.012,-0.637,16.052,55.359,-152.527
0.106,1.001,-0.698,16.174,48.157,-158.142
-0.113,1.027,-0.726,10.925,45.105,-156.006
-0.136,1.065,-0.748,5.432,50.354,-148.254
-0.078,1.076,-0.844,-4.822,70.557,-130.981
-0.051,1.104,-0.873,-11.780,73.914,-124.878
-0.092,1.059,-0.830,-24.414,76.233,-118.835
-0.080,1.051,-0.783,-31.738,75.378,-115.784
-0.159,0.996,-0.670,-40.771,71.289,-116.333
-0.164,0.969,-0.547,-41.931,66.772,-116.943
-0.188,0.911,-0.427,-41.687,51.147,-118.225
-0.179,0.912,-0.476,-38.452,43.457,-120.728
-0.280,0.944,-0.582,-42.908,33.203,-118.103
-0.328,0.954,-0.665,-45.654,41.016,-110.168
-0.327,0.965,-0.719,-63.171,69.519,-86.548
-0.362,0.978,-0.702,-69.458,75.928,-78.125
-0.396,0.959,-0.673,-73.364,84.106,-72.021
-0.386,0.965,-0.642,-70.129,81.421,-72.205
-0.405,0.977,-0.557,-66.528,70.313,-72.449
-0.437,0.962,-0.557,-61.401,64.026,-74.036
-0.430,1.010,-0.569,-57.190,46.875,-77.454
-0.442,1.034,-0.618,-57.800,36.743,-78.735
-0.265,1.056,-0.819,-67.444,33.569,-78.308
-0.211,1.019,-0.801,-76.782,33.447,-75.012
-0.262,0.988,-0.782,-88.440,55.420,-78.857
-0.301,1.034,-0.776,-94.177,63.904,-77.942
-0.477,0.998,-0.717,-103.577,65.674,-73.669
-0.493,0.928,-0.500,-111.084,73.486,-59.631
-0.552,0.925,-0.430,-106.201,79.407,-48.523
-0.601,0.883,-0.285,-100.952,77.026,-45.593
-0.604,0.920,-0.279,-85.083,64.941,-40.466
-0.491,0.941,-0.322,-79.224,57.861,-40.039
-0.452,0.942,-0.396,-73.242,51.880,-39.734
-0.390,1.025,-0.586,-71.533,40.771,-43.213
-0.347,1.052,-0.709,-75.134,33.630,-44.922
-0.304,1.018,-0.703,-92.590,29.968,-51.147
-0.423,1.006,-0.591,-97.107,30.518,-53.650
-0.594,0.939,-0.350,-102.600,28.381,-50.964
-0.638,0.918,-0.285,-99.243,26.733,-46.936
-0.690,0.887,-0.218,-88.074,15.442,-44.128
-0.715,0.897,-0.230,-81.055,8.545,-42.236
-0.667,0.891,-0.351,-70.862,-0.610,-36.377
-0.646,0.888,-0.394,-70.068,-4.456,-35.645
-0.639,0.926,-0.479,-74.219,-4.517,-30.090
-0.630,0.920,-0.446,-78.796,-3.967,-27.405
-0.719,0.892,-0.329,-81.665,0.122,-22.095
-0.714,0.903,-0.271,-81.909,2.686,-16.785
-0.670,0.865,-0.208,-76.233,2.686,-8.545
-0.675,0.882,-0.212,-70.984,-0.305,-5.737
-0.651,0.865,-0.223,-61.401,-13.428,-1.831
-0.654,0.849,-0.203,-56.580,-21.606,-0.916
-0.651,0.856,-0.263,-47.424,-29.846,1.953
-0.634,0.902,-0.412,-45.837,-29.175,2.808
-0.598,0.911,-0.510,-51.514,-29.358,4.089
-0.588,0.827,-0.478,-67.322,-37.537,1.587
-0.599,0.786,-0.367,-72.937,-37.292,-0.427
-0.726,0.733,-0.203,-72.937,-36.438,2.380
-0.769,0.731,-0.158,-69.458,-34.119,4.456

0.941,0.959,-0.651,76.477,-18.921,-8.728
1.072,0.985,-0.675,70.313,-2.563,-10.254
1.104,0.997,-0.655,63.049,16.296,-13.184
1.074,0.987,-0.596,59.265,33.936,-25.085
1.030,0.959,-0.558,58.899,25.574,-35.583
0.891,0.884,-0.466,64.148,10.315,-54.443
0.818,0.858,-0.485,67.322,11.841,-60.852
0.754,0.827,-0.549,69.824,14.648,-69.824
0.711,0.843,-0.563,70.740,5.554,-77.271
0.650,0.853,-0.595,73.242,-3.723,-84.167
0.490,0.843,-0.691,67.566,-14.587,-92.407
0.414,0.835,-0.704,62.988,-11.475,-92.346
0.317,0.839,-0.724,57.434,3.296,-92.957
0.262,0.854,-0.737,54.504,16.663,-82.764
0.126,0.854,-0.828,45.715,36.560,-68.359
0.141,0.932,-0.917,40.039,43.518,-61.890
0.190,0.971,-0.956,33.020,40.222,-59.448
0.295,0.967,-0.877,21.790,32.898,-59.631
0.306,0.996,-0.894,23.560,35.706,-63.416
0.377,1.079,-0.880,24.902,32.471,-78.857
0.347,1.120,-0.958,27.283,30.090,-84.778
0.332,1.158,-1.056,18.005,9.888,-101.990
1.024,1.308,-0.843,16.663,-6.104,-116.516
-0.067,1.110,-1.143,44.128,-21.790,-165.955
0.297,1.274,-1.110,-0.366,4.089,-69.397
-0.182,1.122,-1.009,-20.386,20.081,-100.464
-0.014,1.281,-1.022,-20.142,-6.653,-82.886
0.046,1.212,-0.811,-29.297,-6.592,-71.777
-0.075,1.181,-0.781,-30.579,40.161,-72.266
-0.023,1.285,-0.854,-33.142,54.749,-72.327
0.151,1.245,-0.697,-42.236,28.809,-81.055
0.149,1.256,-0.691,-40.405,14.587,-92.407
0.208,1.270,-0.654,-42.786,0.977,-108.459
0.137,1.263,-0.634,-45.166,-4.395,-115.295
0.354,1.357,-0.719,-49.988,-5.615,-125.854
0.320,1.335,-0.838,-54.321,0.488,-127.197
0.371,1.338,-0.836,-67.322,12.329,-128.235
0.285,1.303,-0.813,-73.792,15.259,-127.808
0.237,1.237,-0.743,-79.407,26.184,-134.766
-0.138,1.192,-0.694,-76.477,30.396,-138.184
-0.276,1.180,-0.692,-85.510,41.809,-118.103
-0.395,1.146,-0.642,-88.562,46.692,-111.206
-0.400,1.159,-0.758,-99.304,52.307,-93.018
-0.323,1.163,-0.730,-108.215,57.190,-86.121
-0.300,1.155,-0.799,-122.314,56.519,-76.111
-0.324,1.094,-0.623,-127.136,61.096,-74.524
-0.370,1.060,-0.497,-126.343,74.829,-63.721
-0.407,1.042,-0.288,-129.456,79.468,-59.631
-0.416,0.984,-0.174,-113.525,85.327,-50.110
-0.445,0.987,-0.173,-105.286,88.318,-49.438
-0.422,0.987,-0.307,-92.834,88.074,-45.837
-0.435,1.000,-0.406,-86.548,85.938,-48.706
-0.530,1.005,-0.570,-83.984,78.979,-55.359
-0.583,0.993,-0.583,-86.853,76.294,-56.824
-0.552,0.994,-0.545,-90.149,81.116,-58.289
-0.621,0.976,-0.389,-91.187,88.196,-52.917
-0.780,0.955,-0.402,-99.304,96.191,-36.316
-0.760,0.990,-0.397,-98.694,106.750,-30.029
-0.729,0.950,-0.360,-100.464,109.863,-24.597
-0.735,0.880,-0.203,-90.515,105.774,-32.593
-0.782,0.909,-0.286,-69.641,94.666,-44.556
-0.731,0.917,-0.344,-62.683,87.891,-46.753
-0.699,0.909,-0.379,-56.030,79.651,-43.701
-0.707,0.938,-0.455,-53.589,79.773,-40.344
-0.663,0.983,-0.571,-55.664,82.520,-35.828
-0.599,0.977,-0.541,-67.139,66.345,-35.400
-0.640,0.936,-0.434,-72.327,46.387,-34.607
-0.648,0.885,-0.309,-78.003,36.499,-20.996
-0.604,0.886,-0.271,-78.918,38.269,-14.099
-0.503,0.867,-0.210,-76.965,38.147,-3.052
-0.474,0.876,-0.247,-73.853,41.443,-1.404
-0.396,0.929,-0.337,-67.322,33.630,-8.850
-0.369,0.944,-0.419,-70.435,23.071,-13.611
-0.372,0.904,-0.337,-72.449,0.122,-29.846
-0.377,0.888,-0.279,-71.838,-9.094,-37.048
-0.445,0.831,-0.232,-71.228,-23.254,-42.969
-0.476,0.779,-0.227,-71.289,-27.527,-44.861
-0.556,0.757,-0.242,-66.223,-31.311,-45.410
-0.577,0.876,-0.263,-66.284,-30.701,-40.344
-0.555,0.760,-0.223,-64.087,-38.452,-38.391
-0.517,0.781,-0.262,-59.937,-32.532,-30.518
-0.633,0.885,-0.370,-57.068,-33.325,-22.339
-0.596,0.723,-0.239,-58.228,-41.321,-20.020
-0.570,0.778,-0.270,-57.129,-42.175,-21.301
-0.680,0.918,-0.303,-55.969,-43.884,-18.860
-0.623,0.711,-0.182,-52.856,-58.655,-23.804
-0.580,0.757,-0.193,-47.546,-54.443,-18.188
-0.584,0.639,-0.262,-43.762,-59.509,-18.188
-0.527,0.706,-0.318,-39.001,-51.270,-11.108
-0.617,0.676,-0.299,-40.833,-46.936,-2.380
-0.668,0.689,-0.309,-40.283,-46.265,0.977
-0.698,0.678,-0.277,-42.053,-49.072,8.911
-0.679,0.697,-0.318,-43.823,-46.570,16.052
-0.574,0.659,-0.267,-49.316,-42.358,24.475
-0.552,0.646,-0.217,-49.500,-44.067,26.428
-0.525,0.502,-0.058,-44.739,-44.678,34.058
-0.630,0.569,-0.093,-37.842,-50.232,26.245
-0.592,0.485,-0.066,-23.865,-54.932,38.757
-0.631,0.579,-0.112,-16.602,-72.449,26.428
-0.583,0.645,-0.178,-11.414,-86.182,31.860
-0.557,0.572,-0.159,-13.367,-95.276,36.438
-0.554,0.645,-0.259,-16.907,-94.910,44.312
-0.544,0.589,-0.205,-21.057,-92.590,52.917
-0.498,0.586,-0.132,-23.132,-84.778,62.012
-0.448,0.611,-0.100,-23.865,-74.036,72.815
-0.358,0.624,-0.105,-24.536,-58.838,88.684
-0.286,0.628,-0.084,-22.156,-59.387,89.111
-0.217,0.624,-0.082,-16.724,-63.171,88.684
-0.128,0.637,-0.095,-14.587,-64.026,88.806
-0.162,0.651,-0.197,-13.489,-61.768,91.675
-0.114,0.698,-0.313,-12.939,-74.829,73.914
-0.097,0.639,-0.252,-20.569,-79.712,70.679
-0.339,0.850,-0.240,-28.076,-91.248,66.956
-0.232,0.522,-0.003,-31.189,-100.098,68.298
-0.234,0.617,-0.021,-26.855,-105.835,65.186
-0.210,0.604,0.006,-26.367,-100.220,74.524
-0.105,0.621,-0.068,-20.935,-79.529,88.501
-0.032,0.609,-0.112,-21.179,-71.777,93.506
0.070,0.594,-0.166,-21.606,-66.650,93.750

0.537,1.092,-0.894,58.960,6.287,-70.435
0.518,1.106,-0.861,57.861,-4.639,-81.055
0.466,1.101,-0.851,58.350,-12.756,-89.111
0.256,1.151,-0.994,54.504,0.488,-88.501
0.156,1.165,-1.067,47.729,9.766,-86.121
0.036,1.207,-1.171,35.767,11.719,-82.520
0.036,1.232,-1.211,27.588,12.573,-79.041
-0.492,1.016,-1.469,27.100,20.020,-110.229
0.163,1.292,-1.055,11.963,6.348,-61.890
0.248,1.266,-0.942,-5.188,19.043,-38.879
0.184,1.278,-0.992,-14.221,37.292,-52.429
0.310,1.340,-0.981,-15.015,21.301,-50.476
0.481,1.205,-0.806,-26.123,6.775,-43.396
0.490,1.228,-0.836,-21.729,13.489,-55.054
0.502,1.201,-0.827,-25.146,1.465,-85.449
0.494,1.229,-0.795,-27.283,-12.695,-106.323
0.374,1.170,-0.802,-33.936,-31.799,-134.399
0.211,1.156,-0.868,-33.203,-35.767,-151.245
0.149,1.181,-0.881,-43.762,-28.809,-153.503
0.076,1.134,-0.844,-48.462,-24.536,-158.936
0.130,1.171,-0.874,-51.575,-3.845,-152.588
0.049,1.159,-0.914,-54.138,3.479,-152.344
-0.140,1.086,-0.901,-69.763,6.592,-139.832
0.109,1.106,-0.703,-84.595,9.094,-124.268
0.043,1.079,-0.735,-87.524,14.893,-140.625
-0.062,1.067,-0.699,-87.280,7.080,-144.287
-0.085,1.014,-0.686,-86.975,0.610,-145.203
-0.284,0.960,-0.640,-83.557,-2.686,-148.071
-0.410,0.933,-0.680,-83.740,2.625,-140.808
-0.497,0.949,-0.781,-87.158,19.714,-116.943
-0.529,0.967,-0.894,-89.661,29.602,-111.023
-0.510,0.957,-0.874,-100.403,35.767,-95.398
-0.494,0.981,-0.812,-104.919,41.626,-89.661
-0.539,0.995,-0.644,-114.075,50.964,-77.942
-0.570,0.988,-0.541,-115.906,54.016,-66.589
-0.494,1.019,-0.428,-110.474,57.922,-60.303
-0.450,1.019,-0.412,-102.356,67.017,-54.016
-0.385,1.034,-0.477,-103.882,69.214,-52.612
-0.393,1.022,-0.519,-98.389,76.965,-46.875
-0.370,1.023,-0.521,-97.961,81.360,-46.387
-0.374,1.005,-0.514,-100.464,85.693,-45.288
-0.431,1.011,-0.475,-101.563,88.196,-43.762
-0.491,1.028,-0.495,-108.887,87.524,-42.297
-0.527,1.010,-0.385,-112.000,85.632,-38.574
-0.476,0.970,-0.404,-111.755,92.773,-29.541
-0.447,1.007,-0.492,-110.352,94.177,-28.809
-0.467,0.941,-0.459,-112.122,85.938,-32.959
-0.494,0.909,-0.364,-112.671,78.430,-34.729
-0.569,0.839,-0.236,-107.544,72.327,-34.607
-0.601,0.825,-0.192,-101.135,67.627,-35.095
-0.646,0.851,-0.145,-94.116,57.678,-33.752
-0.683,0.812,-0.115,-88.379,52.673,-32.532
-0.698,0.819,0.008,-71.594,42.236,-32.349
-0.661,0.834,-0.014,-62.012,41.626,-29.541
-0.699,0.832,-0.128,-47.729,50.720,-25.635
-0.614,0.912,-0.530,-46.936,49.438,-28.687
-0.519,0.906,-0.581,-55.847,55.908,-32.227
-0.634,0.836,-0.448,-54.871,58.228,-36.011
-0.647,0.828,-0.367,-58.777,55.725,-30.334
-0.669,0.839,-0.292,-63.354,57.739,-15.991
-0.654,0.868,-0.294,-64.026,57.312,-11.963
-0.687,0.850,-0.224,-63.293,45.349,-3.906
-0.608,0.814,-0.191,-60.608,42.542,0.366
-0.634,0.845,-0.327,-38.940,27.405,-11.047
-0.624,0.844,-0.462,-36.011,23.621,-12.573
-0.557,0.887,-0.674,-43.091,13.000,-16.724
-0.547,0.856,-0.657,-51.208,3.601,-18.616
-0.581,0.812,-0.529,-62.866,-1.831,-19.165
-0.680,0.797,-0.495,-66.223,-3.601,-19.104
-0.708,0.786,-0.452,-68.176,-1.770,-11.230
-0.683,0.798,-0.431,-71.411,-2.869,-6.897
-0.613,0.785,-0.350,-71.533,-10.010,0.732
-0.562,0.759,-0.291,-71.838,-12.085,5.737
-0.576,0.761,-0.296,-69.580,-14.099,9.705
-0.549,0.784,-0.329,-70.740,-13.489,10.315
-0.478,0.777,-0.340,-72.388,-14.099,14.343
-0.432,0.786,-0.325,-79.529,-19.531,14.893
-0.387,0.765,-0.283,-82.764,-20.569,16.235
-0.428,0.764,-0.197,-84.351,-26.001,14.709
-0.440,0.750,-0.167,-85.266,-32.227,14.893
-0.451,0.729,-0.108,-81.970,-37.476,16.846
-0.436,0.720,-0.079,-79.956,-35.828,20.569
-0.425,0.730,-0.096,-74.768,-34.180,20.874
-0.435,0.714,-0.083,-73.242,-36.438,24.353
-0.415,0.710,-0.066,-69.519,-38.574,25.574
-0.409,0.702,-0.084,-67.566,-39.551,24.475
-0.409,0.717,-0.149,-63.660,-43.457,23.132
-0.413,0.723,-0.124,-64.575,-48.035,21.606
-0.449,0.674,-0.037,-63.782,-56.946,21.973
-0.458,0.657,-0.033,-62.683,-57.739,23.926
-0.503,0.631,-0.022,-56.274,-59.631,28.931
-0.463,0.629,-0.031,-52.551,-60.181,34.485
-0.461,0.651,-0.021,-46.265,-55.054,41.382
-0.462,0.657,-0.063,-42.542,-52.551,44.556
-0.449,0.693,-0.083,-40.344,-54.810,49.988
-0.431,0.709,-0.092,-40.222,-57.007,52.673
-0.354,0.681,-0.142,-38.025,-55.908,57.434
-0.328,0.691,-0.187,-38.269,-57.922,58.044
-0.276,0.674,-0.201,-38.757,-69.946,55.054
-0.215,0.709,-0.158,-38.635,-75.256,54.382
-0.212,0.717,-0.186,-36.621,-85.938,49.133
-0.204,0.755,-0.189,-35.767,-86.853,47.363
-0.161,0.791,-0.163,-36.499,-90.454,45.532
-0.169,0.818,-0.136,-35.583,-90.515,45.776
-0.158,0.825,-0.143,-38.086,-90.393,48.157
-0.098,0.777,-0.097,-37.903,-91.919,46.021
-0.091,0.775,-0.064,-33.630,-99.426,39.368
-0.099,0.763,-0.032,-32.227,-104.675,37.415
-0.100,0.736,-0.003,-28.137,-117.676,34.363
-0.154,0.721,0.067,-25.085,-122.375,31.799
-0.191,0.721,0.053,-21.057,-123.962,32.715
-0.197,0.709,0.056,-18.127,-117.371,40.771
-0.156,0.716,0.032,-15.686,-109.619,46.997
-0.091,0.745,-0.092,-12.817,-97.290,55.420
-0.037,0.751,-0.167,-12.329,-93.994,55.786
0.023,0.737,-0.161,-15.503,-111.572,48.279
0.023,0.711,-0.101,-14.893,-120.667,43.579
-0.000,0.719,-0.017,-12.085,-125.244,39.551
-0.047,0.746,-0.006,-9.705,-126.709,39.551

0.848,0.989,-0.674,48.462,-35.156,-31.860
0.790,0.968,-0.619,38.696,-33.752,-38.269
0.656,0.780,-0.333,34.729,-19.287,-43.396
0.551,0.799,-0.292,31.616,2.258,-37.415
0.617,0.753,-0.270,27.710,16.113,-34.241
0.508,0.703,-0.202,21.057,4.822,-53.467
0.332,0.628,-0.058,21.790,-1.221,-61.401
0.239,0.531,0.113,35.889,0.671,-62.866
0.347,0.567,0.025,47.180,4.822,-66.345
0.430,0.596,-0.126,56.946,6.592,-70.923
0.385,0.600,-0.198,57.434,-2.380,-86.975
0.284,0.602,-0.173,55.420,-4.456,-93.811
0.009,0.648,-0.273,52.795,8.545,-102.600
-0.055,0.663,-0.352,51.453,16.907,-102.844
-0.129,0.677,-0.402,42.664,29.358,-98.328
-0.143,0.645,-0.373,41.199,35.706,-94.543
-0.194,0.721,-0.467,42.297,43.457,-91.248
-0.063,0.652,-0.414,35.095,49.988,-83.496
-0.062,0.661,-0.442,36.255,49.500,-85.449
-0.145,0.688,-0.456,32.471,35.095,-94.788
-0.126,0.695,-0.359,29.114,29.053,-98.999
-0.004,0.659,-0.059,30.701,30.518,-107.788
-0.061,0.695,-0.130,39.673,36.194,-113.831
-0.341,0.864,-0.491,49.194,48.950,-117.371
-0.367,0.950,-0.640,41.687,50.903,-113.098
-0.192,0.982,-0.693,20.386,54.504,-99.854
-0.199,0.985,-0.712,12.512,63.171,-94.299
-0.043,0.969,-0.648,-4.883,86.121,-78.918
0.086,0.955,-0.526,-11.230,97.168,-74.646
0.107,0.933,-0.506,-10.986,114.746,-70.251
0.094,1.044,-0.700,-8.911,148.437,-66.223
0.142,1.080,-0.697,-15.015,141.724,-67.810
0.255,1.086,-0.525,-19.409,125.000,-69.885
0.288,1.077,-0.489,-14.282,127.075,-74.036
0.199,1.226,-0.733,2.441,115.051,-93.079
0.087,1.299,-0.877,7.202,92.346,-106.445
-0.093,1.355,-1.081,-5.127,57.251,-127.930
-0.160,1.347,-1.140,-14.771,50.598,-132.324
-0.331,1.288,-1.041,-35.522,51.331,-134.644
-0.474,1.243,-0.921,-42.297,64.453,-128.052
-0.661,1.277,-0.842,-47.363,104.370,-103.577
-0.673,1.278,-0.852,-46.631,118.896,-93.018
-0.485,1.310,-0.899,-50.171,128.906,-75.195
-0.385,1.320,-0.906,-53.711,134.277,-70.007
-0.253,1.305,-0.811,-63.232,147.949,-63.538
-0.227,1.303,-0.787,-67.322,154.358,-63.782
-0.157,1.296,-0.765,-76.904,133.179,-77.332
-0.160,1.252,-0.696,-82.336,105.957,-92.468
-0.330,1.153,-0.532,-82.764,54.932,-126.404
-0.505,1.161,-0.517,-80.078,44.067,-135.376
-0.746,1.195,-0.688,-78.247,50.842,-127.991
-0.780,1.213,-0.766,-82.031,56.885,-119.751
-0.740,1.185,-0.809,-93.323,69.458,-102.234
-0.735,1.153,-0.753,-100.403,75.562,-97.717
-0.756,1.059,-0.527,-105.347,88.806,-102.600
-0.804,1.015,-0.459,-95.215,98.145,-109.070
-0.760,1.109,-0.374,-117.798,78.918,-84.839
-0.883,1.034,-0.290,-126.221,68.787,-79.895
-0.935,0.994,-0.232,-105.347,45.715,-90.454
-0.935,0.991,-0.207,-104.126,42.847,-80.811
-0.887,1.009,-0.363,-96.130,52.307,-63.416
-0.851,0.988,-0.448,-95.520,53.955,-61.951
-1.011,0.985,-0.599,-97.961,58.228,-57.739
-1.006,0.947,-0.559,-104.858,59.326,-50.415
-1.151,0.912,-0.365,-113.464,64.026,-39.307
-1.122,0.886,-0.266,-115.112,61.584,-30.579
-1.085,0.859,-0.117,-110.413,59.509,-23.132
-1.057,0.851,-0.081,-105.408,58.472,-20.752
-0.922,0.849,-0.089,-94.543,46.448,-17.883
-0.915,0.819,-0.093,-88.135,39.246,-21.057
-0.894,0.823,-0.120,-73.425,30.212,-28.198
-0.905,0.800,-0.115,-68.726,27.466,-29.236
-0.613,0.321,0.034,-41.443,40.466,-36.621
-1.520,1.007,-0.812,-11.963,69.275,-48.584
-0.986,0.822,-0.292,-83.130,43.335,21.790
-0.934,0.902,-0.251,-78.918,21.057,19.653
-0.776,0.812,-0.067,-80.811,18.127,32.776
-0.710,0.789,-0.099,-70.129,37.231,36.255
-0.617,0.835,-0.170,-68.420,36.743,39.368
-0.650,0.824,-0.183,-70.618,32.532,36.377
-0.596,0.795,-0.118,-75.562,11.169,33.142
-0.621,0.783,-0.094,-76.233,1.770,30.884
-0.637,0.806,-0.079,-75.134,-4.761,30.029
-0.614,0.852,-0.077,-70.251,-10.620,29.236
-0.594,0.880,-0.099,-68.115,-7.446,29.724
-0.578,0.929,-0.126,-71.228,-3.113,35.217
-0.554,0.962,-0.192,-72.327,2.197,39.185
-0.432,0.971,-0.247,-78.674,5.615,41.809
-0.393,0.937,-0.222,-82.581,4.211,39.917
-0.430,0.884,-0.172,-87.341,10.376,37.659
-0.476,0.860,-0.149,-88.257,13.123,36.743
-0.528,0.833,-0.043,-87.280,4.578,35.278
-0.573,0.822,0.039,-87.891,-3.845,33.386
-0.594,0.830,0.120,-82.214,-8.545,32.959
-0.605,0.840,0.169,-67.505,-15.320,35.217
-0.538,0.841,0.177,-66.589,-14.832,40.222
-0.464,0.873,0.008,-56.274,-9.583,40.527
-0.424,0.874,-0.036,-58.350,-11.230,40.527
-0.407,0.812,-0.025,-60.608,-10.925,38.818
-0.426,0.792,-0.009,-60.364,-8.850,38.513
-0.480,0.776,-0.034,-59.082,-2.136,38.391
-0.501,0.778,-0.024,-58.838,-1.892,38.452
-0.531,0.765,0.007,-56.702,-9.888,38.635
-0.566,0.755,0.054,-55.237,-13.428,38.940
-0.562,0.734,0.059,-51.880,-14.099,39.124
-0.561,0.672,-0.005,-45.898,-17.456,39.673
-0.587,0.669,-0.042,-41.565,-21.423,37.354
-0.629,0.713,-0.204,-41.260,-29.419,33.997
-0.608,0.684,-0.226,-44.861,-32.471,34.973
-0.639,0.721,-0.207,-46.692,-38.635,33.386
-0.672,0.731,-0.156,-47.668,-37.109,37.354
-0.637,0.785,-0.117,-49.561,-33.386,47.607
-0.578,0.780,-0.106,-49.255,-33.447,51.819
-0.443,0.775,-0.083,-49.011,-32.532,54.565
-0.386,0.757,-0.071,-48.523,-28.748,55.664
-0.312,0.713,-0.083,-46.143,-25.940,54.749
-0.299,0.675,-0.081,-45.288,-29.541,51.392
-0.270,0.656,-0.062,-40.344,-41.138,40.283
-0.277,0.683,-0.047,-36.743,-46.753,33.203

0.352,1.120,-1.032,69.763,50.598,-110.962
0.360,1.128,-1.113,61.279,48.523,-111.023
0.363,1.132,-1.099,34.729,45.166,-112.549
0.263,1.184,-1.050,26.917,43.945,-113.525
0.183,1.190,-1.030,18.250,40.833,-116.089
0.071,1.140,-0.970,29.785,51.086,-117.676
0.053,1.239,-0.875,27.710,48.279,-120.361
0.123,1.197,-0.776,13.855,59.143,-109.131
0.180,1.179,-0.740,7.324,59.814,-108.398
0.264,1.189,-0.789,3.845,60.974,-114.929
0.271,1.180,-0.756,-2.563,60.242,-119.995
0.254,1.139,-0.820,-12.695,66.223,-124.207
0.230,1.138,-0.806,-19.714,68.970,-128.479
0.191,1.110,-0.815,-32.227,64.819,-136.292
0.015,1.041,-0.730,-38.635,54.810,-137.756
-0.076,1.014,-0.671,-39.185,47.852,-139.587
-0.174,0.966,-0.640,-33.630,40.771,-139.648
-0.223,0.971,-0.660,-37.537,36.377,-135.071
-0.245,0.923,-0.660,-42.297,36.499,-128.723
-0.262,0.900,-0.640,-54.810,40.466,-116.943
-0.310,0.911,-0.628,-56.396,44.495,-115.967
-0.349,0.862,-0.579,-62.256,56.335,-104.370
-0.359,0.885,-0.653,-63.354,65.308,-97.717
-0.413,0.939,-0.728,-68.542,85.510,-82.886
-0.437,0.992,-0.744,-75.562,91.064,-76.294
-0.444,0.992,-0.724,-84.167,94.238,-69.153
-0.444,0.993,-0.692,-86.243,91.064,-66.101
-0.438,0.964,-0.623,-90.149,80.994,-67.810
-0.481,0.946,-0.491,-90.576,65.796,-68.054
-0.486,0.943,-0.446,-86.426,63.171,-66.650
-0.344,0.950,-0.469,-79.590,58.655,-63.477
-0.338,0.984,-0.518,-80.261,54.138,-60.974
-0.412,1.038,-0.581,-80.322,51.208,-56.763
-0.372,1.045,-0.579,-81.726,49.316,-57.251
-0.375,1.015,-0.561,-85.022,44.983,-59.692
-0.434,1.025,-0.560,-86.060,46.936,-59.998
-0.448,1.010,-0.544,-86.121,37.476,-63.477
-0.473,0.985,-0.544,-84.534,30.762,-64.514
-0.562,0.979,-0.484,-82.642,18.555,-64.636
-0.557,0.987,-0.471,-79.773,10.864,-64.270
-0.536,0.960,-0.441,-77.271,-6.592,-65.918
-0.570,0.998,-0.422,-76.172,-14.099,-64.392
-0.599,1.003,-0.366,-76.233,-12.146,-57.617
-0.656,0.983,-0.344,-75.745,-9.338,-54.871
-0.719,0.975,-0.407,-76.416,-0.488,-44.617
-0.748,0.964,-0.451,-76.050,0.610,-41.260
-0.771,0.907,-0.530,-76.721,-2.991,-33.386
-0.779,0.918,-0.536,-76.721,-5.371,-30.762
-0.803,0.934,-0.487,-78.552,-9.399,-22.827
-0.757,0.921,-0.442,-78.125,-9.399,-17.700
-0.678,0.914,-0.402,-74.463,-8.301,-10.498
-0.659,0.900,-0.388,-72.571,-11.963,-9.827
-0.678,0.853,-0.303,-70.068,-24.841,-9.277
-0.718,0.820,-0.274,-65.674,-24.475,-6.042
-0.778,0.774,-0.319,-59.265,-20.630,1.831
-0.810,0.748,-0.343,-54.504,-25.940,3.906
-0.804,0.733,-0.393,-49.927,-39.673,8.972
-0.757,0.735,-0.452,-50.293,-44.495,11.841
-0.741,0.719,-0.451,-50.171,-48.340,15.564
-0.727,0.750,-0.436,-49.255,-47.974,20.752
-0.714,0.770,-0.432,-49.377,-48.096,21.790
-0.739,0.752,-0.377,-52.612,-43.884,29.114
-0.748,0.711,-0.334,-52.490,-42.969,32.043
-0.744,0.684,-0.338,-50.598,-41.321,40.283
-0.758,0.668,-0.351,-48.218,-42.175,45.105
-0.693,0.659,-0.436,-49.194,-44.189,53.101
-0.620,0.682,-0.449,-51.086,-49.194,56.458
-0.516,0.666,-0.443,-53.650,-57.861,60.242
-0.469,0.683,-0.421,-55.298,-58.228,60.120
-0.376,0.684,-0.382,-61.340,-58.655,60.608
-0.341,0.705,-0.363,-62.988,-58.167,60.181
-0.296,0.721,-0.277,-67.871,-61.768,57.983
-0.302,0.688,-0.219,-68.604,-64.880,54.810
-0.338,0.671,-0.142,-65.613,-77.209,47.913
-0.358,0.663,-0.108,-61.462,-82.642,46.753
-0.379,0.646,-0.080,-54.871,-89.172,46.143
-0.379,0.663,-0.084,-50.415,-87.097,47.974
-0.356,0.694,-0.142,-45.349,-81.116,54.260
-0.327,0.698,-0.159,-45.044,-79.407,56.702
-0.283,0.725,-0.207,-44.678,-73.792,60.425
-0.265,0.750,-0.248,-45.898,-71.533,62.500
-0.192,0.738,-0.264,-53.772,-70.923,66.162
-0.142,0.724,-0.222,-58.411,-73.608,68.176
-0.100,0.682,-0.147,-59.753,-79.407,66.162
-0.091,0.669,-0.103,-58.777,-83.374,63.721
-0.073,0.664,-0.068,-55.969,-88.684,59.387
-0.064,0.656,-0.042,-52.124,-89.844,56.824
-0.097,0.677,-0.046,-48.828,-92.407,53.223
-0.163,0.692,-0.009,-44.861,-97.839,50.964
-0.183,0.709,0.001,-44.006,-96.252,53.711
-0.124,0.745,0.024,-40.955,-89.050,64.697
-0.063,0.757,-0.012,-38.757,-81.543,69.763
0.074,0.789,-0.130,-39.917,-62.256,77.148
0.120,0.801,-0.169,-41.992,-57.251,78.186
0.177,0.766,-0.146,-49.011,-57.861,73.669
0.178,0.750,-0.110,-52.124,-60.608,70.984
0.110,0.671,0.009,-54.199,-68.604,64.697
0.080,0.619,0.070,-52.551,-75.134,61.096
0.035,0.631,0.097,-44.128,-89.844,54.504
-0.074,0.654,0.174,-40.466,-96.436,55.603
-0.062,0.636,0.199,-36.011,-101.013,59.082
0.042,0.667,0.189,-20.935,-94.910,72.937
0.134,0.701,0.124,-15.991,-78.430,79.468
0.312,0.725,-0.072,-14.282,-43.762,90.515
0.380,0.761,-0.126,-17.151,-36.072,89.478
0.430,0.708,-0.138,-26.611,-36.621,80.444
0.422,0.713,-0.107,-32.349,-43.701,73.792
0.324,0.615,0.087,-37.292,-67.200,59.631
0.265,0.556,0.180,-36.682,-79.346,52.490
0.187,0.527,0.244,-31.616,-86.243,49.377
0.091,0.558,0.282,-18.066,-95.947,52.917
0.145,0.547,0.298,-11.414,-98.450,59.998
0.356,0.566,0.150,3.845,-81.116,74.097
0.431,0.583,0.063,6.714,-70.068,78.491
0.512,0.617,-0.034,8.301,-60.303,80.505
0.593,0.656,-0.114,7.690,-60.974,72.144
0.589,0.644,-0.102,4.089,-59.021,68.298
0.602,0.596,0.034,-1.526,-60.974,59.509
0.584,0.573,0.103,-0.427,-67.200,50.964

0.683,1.169,-0.740,54.993,25.574,-94.849
0.635,1.165,-0.770,49.744,25.940,-102.417
0.710,1.220,-0.950,47.791,27.954,-102.600
0.417,1.195,-0.937,34.424,31.067,-118.408
0.399,1.203,-0.961,30.884,35.095,-116.455
0.283,1.162,-0.929,13.855,44.922,-122.253
0.226,1.147,-0.884,8.850,46.204,-125.122
0.196,1.133,-0.765,-0.305,30.334,-133.911
0.201,1.106,-0.722,-1.160,28.015,-135.864
0.195,1.093,-0.727,-2.686,17.761,-138.428
0.193,1.088,-0.770,-2.380,12.329,-142.395
0.193,1.107,-0.838,-9.155,5.127,-151.306
0.150,1.080,-0.868,-16.052,0.305,-152.527
0.115,1.089,-0.879,-22.278,-3.174,-151.733
-0.017,1.092,-0.968,-40.161,9.399,-145.752
0.007,1.067,-0.934,-48.462,21.606,-139.282
-0.058,0.996,-0.870,-63.721,38.635,-131.958
-0.061,1.005,-0.863,-72.571,44.617,-126.587
-0.076,0.941,-0.772,-85.754,33.569,-125.916
-0.061,0.924,-0.720,-83.191,22.278,-131.531
-0.134,0.893,-0.595,-65.674,8.789,-142.944
-0.160,0.900,-0.560,-58.899,4.517,-144.165
-0.343,0.933,-0.617,-56.580,-11.047,-141.235
-0.422,0.972,-0.649,-60.425,-3.174,-134.399
-0.417,0.972,-0.790,-69.153,22.034,-116.943
-0.408,0.953,-0.815,-77.454,31.494,-111.511
-0.458,0.859,-0.794,-92.224,44.312,-101.379
-0.493,0.825,-0.747,-94.238,49.744,-98.816
-0.598,0.804,-0.651,-93.994,41.992,-102.478
-0.645,0.830,-0.588,-91.003,35.461,-99.548
-0.625,0.820,-0.406,-103.699,20.203,-88.989
-0.669,0.821,-0.447,-95.215,17.944,-87.891
-0.704,0.853,-0.485,-86.609,17.578,-80.872
-0.701,0.877,-0.577,-83.801,23.560,-77.026
-0.737,0.869,-0.683,-82.886,13.306,-71.228
-0.776,0.873,-0.663,-91.187,5.554,-65.979
-0.859,0.834,-0.732,-95.764,-1.526,-60.425
-0.921,0.837,-0.733,-97.778,-10.376,-57.739
-0.910,0.843,-0.617,-99.365,-21.423,-46.509
-0.856,0.845,-0.547,-98.206,-22.583,-41.626
-0.844,0.870,-0.489,-92.896,-13.000,-34.668
-0.873,0.908,-0.444,-90.637,-11.353,-30.762
-0.879,0.888,-0.298,-89.111,-21.423,-24.048
-0.885,0.862,-0.244,-85.388,-25.513,-23.010
-0.893,0.830,-0.320,-71.533,-26.794,-19.653
-0.911,0.861,-0.436,-66.040,-19.287,-20.447
-0.913,0.813,-0.532,-61.584,-24.048,-18.738
-0.936,0.821,-0.584,-61.829,-23.376,-14.221
-0.905,0.817,-0.552,-76.233,-14.893,4.517
-0.885,0.820,-0.565,-78.857,-8.057,14.282
-0.860,0.820,-0.464,-85.022,0.366,30.090
-0.833,0.812,-0.405,-85.266,1.465,33.508
-0.775,0.782,-0.273,-80.933,-2.625,38.330
-0.745,0.758,-0.242,-77.759,-7.141,40.283
-0.720,0.716,-0.216,-67.932,-18.738,42.358
-0.694,0.694,-0.247,-61.523,-27.344,41.748
-0.657,0.710,-0.276,-51.697,-36.011,44.128
-0.659,0.719,-0.348,-47.913,-36.804,46.570
-0.604,0.758,-0.465,-50.232,-38.269,46.387
-0.579,0.760,-0.474,-53.772,-38.696,47.852
-0.609,0.745,-0.404,-61.890,-37.659,44.067
-0.586,0.715,-0.354,-65.247,-38.818,48.889
-0.602,0.669,-0.293,-67.017,-46.692,51.880
-0.619,0.595,-0.190,-64.941,-52.307,52.124
-0.635,0.560,-0.148,-60.791,-58.411,53.711
-0.656,0.547,-0.102,-51.758,-62.561,58.411
-0.656,0.540,-0.086,-47.302,-63.782,61.646
-0.584,0.563,-0.107,-36.499,-57.861,72.998
-0.545,0.563,-0.124,-33.813,-52.734,77.454
-0.510,0.670,-0.253,-30.823,-44.250,78.125
-0.488,0.659,-0.283,-33.325,-45.593,78.369
-0.448,0.605,-0.227,-42.236,-55.054,80.811
-0.424,0.581,-0.184,-43.457,-56.824,80.322
-0.383,0.509,-0.130,-41.199,-57.190,80.322
-0.361,0.525,-0.143,-38.391,-54.810,80.750
-0.326,0.524,-0.179,-35.339,-49.683,85.754
-0.289,0.551,-0.186,-33.875,-49.072,86.731
-0.247,0.588,-0.201,-32.715,-48.279,87.952
-0.261,0.599,-0.220,-35.400,-48.523,89.600
-0.256,0.621,-0.261,-38.757,-51.758,91.736
-0.230,0.640,-0.306,-41.565,-53.589,89.844
-0.183,0.637,-0.237,-51.636,-68.481,86.853
-0.164,0.625,-0.190,-54.443,-72.388,86.304
-0.111,0.568,-0.114,-59.204,-68.970,88.257
-0.083,0.572,-0.094,-59.631,-66.223,89.661
-0.022,0.552,-0.099,-59.875,-58.533,91.919
-0.005,0.541,-0.086,-58.838,-52.856,92.285
0.004,0.567,-0.131,-61.157,-41.138,91.797
0.002,0.571,-0.143,-63.843,-39.246,89.722
-0.035,0.564,-0.133,-69.458,-36.499,88.867
-0.102,0.560,-0.061,-71.350,-33.630,91.064
-0.100,0.536,-0.018,-73.120,-27.649,99.060
0.004,0.526,0.107,-70.129,-25.146,102.295
0.085,0.538,0.097,-65.186,-22.400,104.431
0.308,0.559,0.067,-59.631,-24.597,105.896
0.440,0.572,0.036,-56.763,-31.128,101.440
0.601,0.579,0.002,-50.720,-47.241,85.815
0.630,0.583,-0.010,-49.683,-49.866,76.477
0.570,0.651,-0.036,-48.279,-59.814,57.861
0.496,0.644,0.010,-47.607,-73.059,48.523
0.301,0.641,0.112,-45.837,-92.285,33.447
0.221,0.669,0.165,-42.847,-98.145,33.142
0.177,0.646,0.205,-40.405,-99.976,35.278
0.179,0.623,0.222,-30.823,-93.872,46.692
0.253,0.623,0.207,-28.076,-89.233,55.725
0.511,0.623,0.071,-19.531,-74.585,66.650
0.612,0.649,-0.000,-20.264,-67.993,66.650
0.754,0.619,-0.014,-23.987,-66.711,55.786
0.760,0.606,0.013,-26.306,-68.237,48.218
0.734,0.567,0.051,-26.428,-71.045,40.344
0.672,0.585,0.135,-23.926,-80.566,26.917
0.595,0.603,0.144,-20.630,-80.200,23.437
0.447,0.637,0.097,-17.273,-70.557,26.733
0.508,0.644,0.104,-17.761,-70.435,32.593
0.649,0.654,0.088,-13.611,-66.650,33.447
0.678,0.670,0.029,-12.573,-56.946,34.790
0.746,0.688,0.004,-15.198,-46.509,35.278
0.901,0.650,0.077,-19.592,-46.570,30.762
0.884,0.652,0.090,-17.334,-47.363,23.682

0.775,1.089,-0.681,116.394,5.798,-53.650
0.729,1.131,-0.626,109.131,-3.357,-62.805
0.662,1.189,-0.673,108.582,-9.583,-73.181
0.987,1.245,-0.780,109.009,-6.592,-79.529
0.935,1.268,-0.800,102.478,-14.526,-88.928
0.910,1.273,-0.849,83.130,-2.441,-99.792
0.860,1.254,-0.812,72.571,6.836,-101.440
0.715,1.244,-0.602,55.420,23.865,-99.976
0.772,1.241,-0.593,55.969,33.752,-93.994
0.732,1.259,-0.627,51.331,40.710,-106.934
0.720,1.256,-0.682,50.537,34.668,-118.896
0.697,1.230,-0.703,50.781,6.348,-141.357
0.612,1.252,-0.457,51.208,-4.517,-157.532
0.166,1.183,-0.822,71.411,-13.733,-173.828
-0.070,1.224,-0.901,50.659,5.676,-143.982
-0.030,1.219,-0.989,39.673,35.767,-129.822
0.079,1.255,-1.137,14.771,54.993,-125.000
0.010,1.263,-1.042,-0.977,50.110,-124.634
0.001,1.191,-0.816,-22.034,60.669,-116.394
-0.038,1.213,-0.828,-25.757,69.702,-110.107
0.067,1.180,-0.724,-41.260,72.998,-97.595
0.153,1.176,-0.654,-48.035,70.557,-98.511
0.258,1.122,-0.648,-51.208,65.369,-103.271
0.318,1.117,-0.639,-53.101,64.392,-111.511
0.317,1.028,-0.665,-55.115,47.668,-127.014
0.186,0.974,-0.633,-57.373,32.593,-138.184
-0.047,0.909,-0.651,-62.988,25.696,-147.644
-0.371,0.926,-0.523,-61.279,34.058,-142.151
-0.512,0.967,-0.604,-64.331,65.857,-116.882
-0.549,1.004,-0.658,-64.575,82.275,-103.638
-0.478,1.129,-0.853,-68.542,103.149,-80.505
-0.397,1.154,-0.902,-74.463,106.689,-72.632
-0.298,1.172,-0.868,-83.862,91.248,-74.951
-0.284,1.161,-0.805,-86.792,75.439,-83.801
-0.317,1.156,-0.749,-90.820,54.565,-98.267
-0.430,1.169,-0.784,-92.041,48.950,-102.600
-0.611,1.155,-0.656,-103.882,38.086,-104.858
-0.717,1.142,-0.573,-106.262,34.851,-103.333
-0.813,1.160,-0.535,-106.262,51.147,-83.984
-0.796,1.153,-0.562,-109.802,59.021,-74.097
-0.791,1.192,-0.703,-104.309,63.782,-60.730
-0.812,1.190,-0.826,-108.276,62.683,-55.725
-0.766,1.133,-0.732,-120.728,55.176,-50.354
-0.806,1.127,-0.694,-121.094,48.767,-52.734
-0.923,1.074,-0.593,-124.512,37.292,-54.138
-0.973,1.057,-0.528,-122.864,27.588,-53.040
-1.048,1.020,-0.382,-119.263,13.123,-47.607
-1.042,1.013,-0.356,-113.953,10.620,-40.894
-1.037,0.992,-0.319,-102.539,6.470,-26.245
-1.031,0.991,-0.320,-96.619,4.883,-17.212
-0.977,0.935,-0.233,-85.938,-5.310,-3.357
-0.947,0.906,-0.199,-78.247,-10.620,2.686
-0.973,0.897,-0.402,-67.383,-8.911,6.775
-0.982,0.928,-0.551,-67.627,-9.094,8.850
-0.957,0.944,-0.681,-74.829,-15.625,12.207
-0.844,0.861,-0.644,-95.398,-33.020,20.020
-0.853,0.821,-0.526,-105.347,-39.063,21.973
-0.842,0.799,-0.317,-109.558,-35.278,33.875
-0.799,0.787,-0.249,-107.178,-31.799,39.856
-0.666,0.756,-0.177,-100.647,-30.640,45.593
-0.615,0.737,-0.123,-96.191,-34.180,46.753
-0.519,0.697,-0.006,-84.900,-40.955,49.988
-0.488,0.674,0.038,-76.111,-43.945,49.438
-0.465,0.691,-0.044,-60.669,-49.011,47.485
-0.478,0.717,-0.122,-57.312,-51.453,45.471
-0.499,0.783,-0.365,-58.777,-54.565,43.030
-0.416,0.781,-0.410,-65.430,-53.650,41.260
-0.321,0.765,-0.323,-79.102,-53.101,42.908
-0.296,0.742,-0.245,-83.374,-44.495,43.579
-0.250,0.721,-0.155,-89.294,-32.471,47.180
-0.273,0.705,-0.106,-91.492,-32.410,44.678
-0.259,0.648,-0.023,-89.172,-40.710,37.537
-0.269,0.624,0.054,-87.280,-48.157,35.950
-0.270,0.578,0.235,-77.576,-56.213,31.982
-0.289,0.597,0.281,-70.129,-56.885,33.691
-0.326,0.625,0.269,-55.298,-55.237,36.804
-0.332,0.645,0.230,-48.157,-58.167,38.147
-0.316,0.669,0.121,-44.067,-57.190,38.025
-0.170,0.679,0.019,-45.105,-60.974,36.255
-0.129,0.659,0.033,-48.218,-63.293,34.668
-0.105,0.618,0.034,-47.363,-53.345,32.776
-0.111,0.618,0.041,-48.340,-50.842,33.020
-0.116,0.583,0.106,-46.631,-46.753,33.630
-0.125,0.581,0.134,-44.556,-44.495,34.485
-0.133,0.586,0.146,-37.292,-39.978,35.828
-0.145,0.615,0.164,-34.973,-42.908,34.729
-0.188,0.651,0.137,-27.161,-56.030,30.945
-0.220,0.665,0.065,-25.391,-62.012,30.090
-0.193,0.683,0.027,-28.076,-74.829,26.855
-0.174,0.662,0.042,-29.785,-81.299,25.208
-0.172,0.648,0.083,-31.372,-81.177,27.405
-0.094,0.660,0.016,-27.832,-65.674,37.476
-0.052,0.635,-0.001,-27.588,-58.228,40.039
0.021,0.624,-0.007,-27.039,-47.546,42.358
0.123,0.615,-0.087,-24.536,-46.509,40.833
0.118,0.598,-0.075,-27.832,-60.791,28.564
0.053,0.594,-0.096,-28.625,-73.425,18.982
-0.126,0.591,0.018,-31.372,-101.929,1.831
-0.200,0.621,0.107,-31.616,-118.225,-1.953
-0.280,0.631,0.207,-23.254,-125.366,3.784
-0.256,0.642,0.186,-17.090,-119.873,14.038
-0.159,0.657,0.077,-11.780,-102.722,31.372
-0.077,0.656,0.006,-11.963,-93.323,40.405
0.025,0.638,-0.040,-10.498,-88.989,42.847
0.084,0.635,-0.074,-10.559,-93.994,38.513
0.154,0.603,-0.126,-12.695,-97.229,34.851
0.078,0.622,-0.032,-18.188,-120.483,15.747
0.028,0.667,0.039,-17.822,-132.385,10.315
-0.057,0.746,0.015,-14.282,-125.610,17.334
-0.057,0.772,-0.020,-13.916,-108.765,28.870
0.029,0.831,-0.127,-14.587,-69.702,51.819
0.110,0.855,-0.129,-17.822,-53.162,61.157
0.266,0.815,-0.181,-23.071,-28.320,69.275
0.335,0.832,-0.197,-26.550,-26.855,68.237
0.450,0.741,-0.088,-33.875,-47.424,51.697
0.410,0.705,0.006,-35.156,-63.477,39.734
0.338,0.648,0.059,-31.494,-75.134,29.602
0.130,0.607,0.215,-30.518,-87.097,23.254
0.187,0.588,0.279,-24.902,-83.435,28.809

0.496,1.219,-0.938,100.159,66.101,-88.440
0.492,1.258,-0.969,88.318,80.688,-82.336
0.519,1.338,-0.961,77.026,93.445,-76.355
0.569,1.254,-0.863,57.373,102.600,-76.660
0.530,1.338,-0.914,52.917,104.797,-75.500
0.356,1.467,-0.990,75.928,97.290,-126.038
0.414,1.443,-0.902,58.167,62.561,-123.169
0.402,1.321,-0.812,38.330,50.903,-115.051
0.443,1.354,-0.827,29.480,52.307,-116.455
0.397,1.385,-0.817,11.597,41.565,-129.883
0.355,1.395,-0.786,9.277,31.860,-136.292
0.323,1.370,-0.754,3.845,32.410,-147.217
0.244,1.349,-0.700,0.183,37.720,-147.095
0.217,1.314,-0.638,-3.357,41.809,-147.461
0.058,1.325,-0.547,-10.864,42.053,-155.273
0.040,1.303,-0.517,-13.184,40.649,-153.320
0.042,1.254,-0.420,-20.874,33.691,-152.039
0.035,1.243,-0.427,-18.982,31.494,-149.536
0.154,1.221,-0.611,-26.184,43.945,-143.250
0.142,1.218,-0.654,-33.386,48.584,-141.479
0.023,1.146,-0.547,-53.345,49.438,-142.090
-0.108,1.112,-0.502,-57.983,51.636,-139.526
-0.300,1.067,-0.472,-61.707,62.073,-126.282
-0.346,1.048,-0.472,-60.364,62.866,-122.070
-0.424,1.055,-0.467,-56.763,45.898,-117.676
-0.379,1.027,-0.437,-53.467,41.260,-112.976
-0.319,1.003,-0.385,-44.434,45.593,-104.919
-0.273,1.030,-0.400,-39.795,46.204,-102.356
-0.186,1.063,-0.744,-40.955,56.702,-96.252
-0.171,1.094,-0.927,-51.636,66.833,-96.130
-0.264,1.031,-0.797,-79.285,63.660,-102.722
-0.417,0.983,-0.576,-88.806,66.895,-100.952
-0.662,0.979,-0.238,-93.262,80.383,-87.280
-0.696,0.991,-0.187,-87.280,83.496,-77.881
-0.589,1.048,-0.273,-71.289,88.623,-62.256
-0.560,1.106,-0.335,-61.829,86.792,-59.509
-0.509,1.148,-0.487,-65.918,80.750,-45.776
-0.460,1.177,-0.670,-64.087,84.106,-44.678
-0.540,1.237,-0.968,-72.205,66.223,-56.519
-0.538,1.201,-0.990,-84.961,60.791,-62.988
-0.771,1.068,-0.642,-107.239,34.180,-66.528
-0.930,1.030,-0.437,-112.610,29.175,-62.134
-1.053,1.031,-0.196,-107.300,27.710,-45.105
-0.996,1.031,-0.147,-98.877,24.048,-35.461
-0.885,1.052,-0.083,-79.346,12.695,-21.423
-0.844,1.081,-0.080,-67.078,6.287,-14.709
-0.807,1.113,-0.244,-48.401,-4.272,-9.644
-0.786,1.116,-0.470,-44.983,-12.878,-10.437
-0.748,1.148,-0.739,-59.021,-24.780,-26.428
-0.710,1.068,-0.845,-74.463,-36.438,-29.541
-0.803,0.916,-0.543,-98.022,-27.771,-25.879
-0.861,0.857,-0.369,-100.647,-15.015,-23.865
-0.996,0.865,-0.209,-89.905,-3.418,-12.390
-0.894,0.842,-0.116,-92.163,-5.432,3.479
-0.802,0.777,-0.039,-83.557,-9.827,22.034
-0.679,0.781,-0.060,-72.266,-16.418,25.208
-0.659,0.772,-0.038,-64.880,-25.208,27.100
-0.705,0.699,0.091,-43.884,-45.532,27.954
-0.734,0.681,-0.040,-31.128,-52.063,28.076
-0.636,0.806,-0.564,-23.376,-48.096,27.893
-0.509,0.791,-0.701,-32.532,-65.308,25.757
-0.406,0.756,-0.609,-58.411,-75.806,17.517
-0.406,0.726,-0.479,-69.031,-70.679,17.517
-0.433,0.721,-0.280,-79.712,-50.110,25.085
-0.408,0.713,-0.198,-83.191,-44.312,29.602
-0.371,0.690,-0.084,-78.369,-39.246,33.508
-0.344,0.684,-0.041,-73.975,-36.621,35.767
-0.278,0.637,0.028,-63.599,-33.142,37.598
-0.256,0.592,0.084,-55.664,-33.325,37.231
-0.191,0.593,0.087,-36.987,-42.542,36.743
-0.313,0.594,0.087,-34.790,-47.058,29.968
-0.362,0.760,-0.341,-28.076,-51.208,24.414
-0.303,0.778,-0.421,-38.269,-63.110,21.240
-0.269,0.731,-0.245,-56.213,-85.510,15.076
-0.319,0.691,-0.148,-61.523,-83.679,15.808
-0.423,0.694,-0.099,-65.002,-59.937,32.104
-0.454,0.655,-0.054,-65.247,-50.537,40.833
-0.407,0.634,-0.041,-60.120,-45.532,50.903
-0.294,0.587,-0.024,-54.932,-40.222,52.734
-0.284,0.598,-0.068,-50.781,-38.147,51.880
-0.253,0.618,-0.098,-43.335,-45.349,49.500
-0.252,0.639,-0.104,-43.030,-52.917,45.044
-0.345,0.673,-0.100,-41.504,-70.435,36.743
-0.431,0.667,-0.085,-39.856,-78.491,36.621
-0.441,0.701,-0.125,-40.039,-85.327,42.297
-0.386,0.709,-0.144,-40.222,-86.853,47.119
-0.217,0.722,-0.169,-41.260,-75.195,58.167
-0.148,0.702,-0.219,-43.701,-62.988,59.509
0.021,0.712,-0.223,-51.086,-53.040,64.026
0.037,0.697,-0.191,-51.697,-56.519,60.425
0.041,0.647,-0.100,-54.077,-66.589,49.438
0.017,0.604,-0.064,-54.016,-72.876,43.823
-0.049,0.629,0.027,-52.551,-84.534,37.781
-0.055,0.635,0.057,-49.316,-87.952,36.743
-0.065,0.643,0.025,-44.189,-84.839,41.809
-0.033,0.651,-0.010,-43.823,-80.139,45.715
-0.015,0.669,-0.026,-43.762,-75.134,48.035
0.003,0.635,-0.028,-47.852,-57.251,53.589
0.032,0.621,-0.014,-50.049,-51.575,56.702
0.085,0.591,0.016,-52.368,-48.584,52.185
0.031,0.579,0.037,-53.772,-51.208,46.814
-0.064,0.548,0.163,-55.969,-58.044,44.373
-0.083,0.544,0.247,-53.833,-59.937,48.462
0.057,0.568,0.287,-43.335,-55.420,58.594
0.138,0.596,0.236,-38.025,-53.955,61.035
0.225,0.606,0.201,-29.785,-59.143,60.181
0.315,0.630,0.194,-26.611,-70.068,54.565
0.315,0.643,0.198,-21.362,-77.942,49.133
0.394,0.627,0.165,-19.287,-78.552,42.358
0.408,0.615,0.162,-18.860,-84.534,35.583
0.283,0.576,0.239,-16.479,-100.220,16.968
0.201,0.562,0.341,-18.555,-102.051,13.428
0.198,0.588,0.421,-5.981,-88.989,23.315
0.255,0.612,0.359,0.000,-73.242,31.799
0.297,0.654,0.261,6.348,-57.922,39.307
0.377,0.708,0.072,5.310,-45.532,46.753
0.410,0.707,0.058,4.211,-47.363,45.471
0.423,0.685,0.084,1.038,-49.744,44.373
0.434,0.647,0.127,-1.160,-46.204,37.659

0.645,1.257,-0.860,78.003,40.344,-9.827
0.861,1.291,-0.866,70.007,45.593,-9.888
0.996,1.333,-0.903,62.805,43.579,-11.963
1.158,1.371,-0.842,48.462,27.405,-38.696
1.074,1.259,-0.721,43.518,13.306,-58.716
1.098,1.400,-0.890,72.998,-5.432,-100.830
1.070,1.395,-0.939,56.213,-23.132,-108.521
0.766,1.367,-0.925,27.466,-6.714,-124.878
0.629,1.441,-1.034,21.790,12.146,-127.808
0.502,1.496,-1.089,-5.005,25.085,-124.207
0.379,1.492,-0.964,-17.761,30.640,-122.864
0.365,1.513,-0.993,-17.700,37.598,-121.277
0.345,1.513,-0.943,-26.306,40.222,-134.827
0.333,1.522,-0.954,-29.785,36.804,-142.944
0.312,1.479,-0.991,-42.419,21.606,-156.128
0.255,1.450,-1.060,-49.011,3.845,-167.603
-0.002,1.353,-0.907,-69.763,-16.724,-173.218
-0.067,1.292,-0.829,-77.881,-8.667,-168.762
-0.208,1.237,-0.753,-90.576,-3.113,-163.391
-0.193,1.196,-0.706,-95.642,2.747,-156.372
-0.203,1.111,-0.634,-98.694,18.066,-143.372
-0.301,1.113,-0.596,-98.022,29.175,-135.254
-0.417,1.102,-0.656,-99.243,50.598,-113.220
-0.384,1.088,-0.650,-102.173,51.453,-101.196
-0.386,1.010,-0.572,-107.788,41.504,-86.792
-0.394,0.960,-0.605,-110.413,44.373,-81.299
-0.498,1.005,-0.722,-110.718,55.664,-73.364
-0.544,1.013,-0.733,-113.342,57.983,-70.618
-0.527,0.981,-0.698,-117.004,61.218,-65.674
-0.513,0.973,-0.657,-119.141,62.988,-66.406
-0.526,0.957,-0.462,-119.934,59.998,-75.500
-0.521,0.957,-0.381,-111.206,66.650,-74.036
-0.504,0.956,-0.370,-107.117,68.420,-74.097
-0.574,0.991,-0.352,-100.525,70.435,-64.758
-0.632,0.985,-0.251,-101.074,71.228,-58.044
-0.573,1.024,-0.407,-101.074,73.730,-43.274
-0.544,1.052,-0.494,-104.919,76.294,-39.246
-0.458,1.068,-0.533,-106.018,59.021,-43.030
-0.439,1.048,-0.500,-108.459,52.368,-45.349
-0.565,1.013,-0.392,-111.755,50.964,-50.293
-0.648,1.006,-0.347,-112.122,50.598,-50.232
-0.777,0.933,-0.219,-106.567,47.729,-45.532
-0.837,0.934,-0.197,-99.731,45.349,-42.969
-0.925,0.945,-0.168,-81.604,26.550,-44.434
-0.937,0.945,-0.131,-70.923,12.390,-43.518
-1.011,0.949,-0.188,-47.241,-6.531,-40.161
-1.014,1.025,-0.424,-38.574,-5.371,-36.377
-0.907,1.086,-0.804,-46.875,-15.381,-31.555
-0.808,1.085,-0.887,-60.425,-23.682,-27.588
-0.847,0.987,-0.730,-88.379,-36.804,-23.621
-0.898,0.915,-0.562,-97.595,-37.415,-15.747
-0.968,0.833,-0.296,-104.370,-17.517,5.615
-0.977,0.824,-0.238,-103.455,-11.169,15.137
-0.894,0.805,-0.124,-95.581,-9.888,30.579
-0.828,0.787,-0.084,-88.928,-12.390,32.959
-0.771,0.769,-0.034,-70.984,-18.921,37.903
-0.647,0.805,-0.199,-64.392,-22.339,37.598
-0.585,0.829,-0.408,-63.110,-17.639,33.203
-0.447,0.835,-0.565,-76.172,-26.306,24.658
-0.443,0.759,-0.502,-84.045,-32.837,18.433
-0.527,0.684,-0.336,-92.529,-31.433,13.611
-0.607,0.702,-0.257,-94.543,-30.212,10.742
-0.649,0.661,-0.124,-95.520,-38.452,14.709
-0.673,0.683,-0.056,-92.468,-41.138,16.663
-0.690,0.665,0.040,-85.205,-48.157,23.254
-0.675,0.647,0.060,-79.407,-52.551,25.940
-0.591,0.629,0.065,-67.444,-58.838,28.259
-0.552,0.625,-0.027,-61.035,-59.143,31.433
-0.425,0.652,-0.235,-60.791,-58.411,27.527
-0.351,0.638,-0.221,-65.247,-68.604,24.475
-0.399,0.593,-0.128,-69.275,-82.703,15.564
-0.457,0.604,-0.065,-71.716,-80.078,15.625
-0.559,0.602,-0.007,-69.397,-76.111,21.912
-0.589,0.610,0.014,-68.298,-78.735,25.757
-0.556,0.611,0.077,-61.523,-82.520,35.950
-0.523,0.606,0.081,-58.533,-80.505,39.917
-0.473,0.613,0.085,-49.744,-74.524,47.974
-0.342,0.655,-0.045,-46.631,-70.862,49.316
-0.268,0.669,-0.145,-46.814,-67.688,49.011
-0.117,0.649,-0.163,-53.833,-81.360,42.969
-0.084,0.643,-0.130,-56.641,-91.370,37.415
-0.158,0.667,-0.046,-57.861,-95.459,31.189
-0.212,0.639,0.010,-59.265,-97.351,30.945
-0.267,0.599,0.077,-56.396,-101.257,30.212
-0.270,0.593,0.112,-54.688,-105.469,33.569
-0.282,0.581,0.171,-48.218,-112.366,35.583
-0.251,0.579,0.208,-47.363,-111.572,37.415
-0.198,0.604,0.133,-38.452,-106.018,41.626
-0.150,0.643,0.144,-37.170,-107.178,44.739
-0.091,0.705,0.111,-35.095,-103.271,49.988
-0.054,0.677,0.126,-37.476,-98.206,54.810
0.044,0.640,0.085,-38.635,-87.891,58.411
0.055,0.632,0.105,-40.100,-89.172,57.434
0.013,0.569,0.158,-42.236,-89.478,57.495
-0.005,0.520,0.218,-40.161,-88.013,57.129
-0.014,0.470,0.240,-38.391,-90.088,54.382
-0.029,0.469,0.273,-29.236,-101.074,53.284
0.020,0.462,0.252,-25.269,-103.577,55.725
0.176,0.498,0.147,-15.564,-98.267,56.519
0.237,0.551,0.118,-15.259,-96.802,56.824
0.254,0.609,0.096,-15.503,-86.975,56.519
0.260,0.602,0.121,-18.616,-79.346,58.350
0.264,0.592,0.156,-20.569,-73.486,59.265
0.179,0.555,0.267,-19.226,-70.251,57.922
0.146,0.531,0.325,-19.226,-67.200,58.167
0.155,0.469,0.442,-11.963,-64.270,60.486
0.187,0.467,0.430,-6.531,-70.923,60.181
0.391,0.541,0.354,7.568,-79.712,63.782
0.584,0.549,0.319,14.465,-81.970,62.805
0.726,0.587,0.243,19.775,-84.961,57.922
0.810,0.703,-0.017,27.405,-81.116,41.870
0.743,0.772,-0.079,22.583,-84.412,33.813
0.502,0.741,0.028,9.827,-87.708,21.423
0.382,0.720,0.110,6.348,-75.073,22.461
0.309,0.689,0.163,2.502,-55.481,30.396
0.274,0.651,0.202,2.991,-39.368,38.391
0.321,0.606,0.239,5.920,-46.814,36.255
0.368,0.584,0.254,15.808,-67.993,26.855
0.432,0.581,0.239,22.217,-75.623,23.132

0.894,1.163,-0.687,63.049,100.281,-48.645
0.989,1.222,-0.580,49.377,80.566,-61.951
1.027,1.191,-0.535,44.434,69.519,-71.167
0.975,1.193,-0.530,46.387,60.913,-93.750
0.927,1.208,-0.537,45.227,54.016,-103.271
0.743,1.233,-0.582,42.419,35.522,-124.390
0.627,1.263,-0.643,40.955,27.222,-134.094
0.409,1.282,-0.768,28.748,20.020,-137.695
0.305,1.271,-0.785,19.287,26.184,-134.277
0.269,1.359,-0.850,6.714,49.927,-125.366
0.214,1.304,-0.499,1.404,53.406,-130.493
0.083,1.359,-0.987,20.935,46.204,-136.292
0.199,1.278,-0.720,-13.367,45.837,-118.103
0.176,1.259,-0.590,-22.339,52.063,-118.042
0.247,1.272,-0.534,-25.513,55.969,-123.718
0.224,1.269,-0.583,-22.766,53.650,-129.944
0.235,1.288,-0.499,-24.536,45.654,-139.465
0.243,1.272,-0.455,-25.208,42.908,-141.174
0.184,1.270,-0.397,-21.118,35.706,-150.818
0.181,1.227,-0.443,-18.860,29.236,-153.381
-0.033,1.238,-0.658,-21.667,33.447,-154.541
-0.090,1.225,-0.700,-31.555,42.847,-149.658
-0.205,1.162,-0.731,-49.377,55.908,-141.052
-0.290,1.145,-0.692,-54.810,64.758,-136.292
-0.443,1.125,-0.602,-65.063,80.933,-122.070
-0.478,1.113,-0.530,-67.139,84.106,-113.831
-0.468,1.103,-0.406,-70.618,95.825,-99.243
-0.462,1.099,-0.355,-71.045,97.778,-93.750
-0.366,1.079,-0.244,-70.313,88.257,-89.478
-0.345,1.058,-0.190,-67.261,82.336,-88.989
-0.357,1.050,-0.151,-61.218,68.359,-89.233
-0.354,1.045,-0.195,-58.594,64.026,-88.623
-0.464,1.103,-0.487,-54.565,72.266,-83.984
-0.473,1.165,-0.639,-56.763,81.360,-79.712
-0.522,1.171,-0.676,-72.144,84.656,-74.829
-0.570,1.174,-0.584,-76.111,86.975,-72.815
-0.762,1.132,-0.431,-81.055,87.280,-68.604
-0.792,1.099,-0.279,-88.135,82.275,-62.256
-0.901,1.094,-0.237,-83.069,73.608,-56.335
-0.905,1.127,-0.302,-77.698,69.580,-50.049
-0.858,1.123,-0.327,-71.045,54.749,-37.537
-0.831,1.138,-0.308,-69.824,48.279,-31.860
-0.741,1.171,-0.458,-60.913,44.617,-20.630
-0.685,1.204,-0.600,-59.387,40.405,-20.752
-0.652,1.223,-0.709,-72.083,21.057,-24.170
-0.684,1.218,-0.892,-79.407,20.691,-25.513
-0.694,1.170,-0.889,-92.896,22.949,-27.893
-0.858,1.085,-0.549,-112.854,13.184,-29.724
-0.930,1.021,-0.391,-115.295,9.277,-26.550
-0.953,1.002,-0.240,-110.901,9.521,-13.062
-0.900,1.008,-0.286,-104.797,10.071,-7.935
-0.717,0.982,-0.376,-99.182,2.075,-1.282
-0.674,0.949,-0.367,-100.220,-0.854,-1.648
-0.689,0.929,-0.301,-95.032,-12.451,-4.456
-0.716,0.896,-0.232,-92.041,-19.897,-5.676
-0.790,0.847,-0.303,-82.458,-25.085,-6.042
-0.799,0.862,-0.445,-82.764,-23.560,-5.127
-0.802,0.844,-0.464,-92.957,-32.104,-6.714
-0.784,0.758,-0.344,-97.412,-37.598,-1.465
-0.727,0.740,-0.194,-96.252,-33.020,9.949
-0.682,0.713,-0.150,-94.849,-29.724,15.442
-0.580,0.699,-0.085,-87.708,-26.184,22.339
-0.536,0.720,-0.064,-85.327,-27.466,23.865
-0.474,0.694,-0.056,-78.552,-32.715,25.269
-0.437,0.680,-0.038,-75.684,-41.870,22.339
-0.461,0.665,-0.036,-66.772,-54.443,13.672
-0.458,0.671,-0.079,-63.538,-54.993,10.559
-0.459,0.686,-0.103,-63.904,-61.890,7.935
-0.478,0.668,-0.116,-64.148,-61.584,8.911
-0.471,0.653,-0.066,-66.223,-61.218,15.259
-0.468,0.661,-0.017,-65.125,-59.021,18.677
-0.470,0.649,0.003,-64.880,-62.683,20.020
-0.442,0.642,0.043,-63.354,-66.101,19.958
-0.433,0.628,0.070,-62.622,-69.153,20.264
-0.439,0.616,0.095,-53.711,-71.289,20.142
-0.423,0.633,0.099,-52.002,-72.998,20.813
-0.432,0.617,0.047,-50.171,-72.510,21.729
-0.423,0.633,0.018,-48.828,-75.317,20.142
-0.432,0.607,0.048,-48.340,-89.050,17.883
-0.454,0.605,0.064,-48.218,-92.896,20.264
-0.452,0.619,0.033,-47.791,-82.886,27.832
-0.420,0.631,0.026,-47.668,-80.627,31.006
-0.406,0.645,0.040,-46.570,-79.651,33.630
-0.334,0.650,0.058,-47.485,-83.374,36.743
-0.302,0.652,0.081,-47.546,-88.562,35.706
-0.272,0.649,0.074,-43.701,-98.389,32.715
-0.268,0.657,0.051,-42.480,-103.577,30.640
-0.265,0.661,0.069,-39.551,-115.967,30.090
-0.282,0.669,0.096,-39.368,-118.225,32.227
-0.305,0.654,0.108,-34.668,-109.863,43.396
-0.289,0.666,0.093,-33.813,-105.469,49.133
-0.191,0.667,-0.010,-31.860,-95.459,60.364
-0.165,0.659,-0.086,-32.959,-95.642,58.594
-0.122,0.655,-0.172,-40.344,-108.948,48.889
-0.162,0.637,-0.117,-44.800,-122.803,41.443
-0.339,0.631,0.072,-45.593,-133.301,38.269
-0.364,0.631,0.113,-43.457,-126.038,43.091
-0.322,0.654,0.068,-38.330,-104.675,60.791
-0.238,0.656,0.026,-36.682,-97.412,70.129
-0.011,0.641,-0.063,-35.950,-92.957,77.698
0.101,0.654,-0.101,-38.879,-91.980,79.529
0.214,0.548,0.007,-46.753,-105.286,71.045
0.250,0.506,0.081,-48.828,-110.291,65.918
0.255,0.477,0.135,-49.377,-122.620,53.406
0.164,0.421,0.282,-46.265,-135.010,45.227
0.038,0.444,0.381,-42.175,-145.996,39.795
-0.039,0.471,0.447,-31.311,-144.836,53.345
0.081,0.482,0.422,-25.391,-134.827,64.758
0.358,0.521,0.227,-14.282,-112.183,82.092
0.472,0.530,0.160,-13.916,-105.713,83.923
0.574,0.503,0.188,-13.428,-113.831,72.510
0.574,0.483,0.233,-14.282,-122.681,62.317
0.433,0.416,0.349,-9.521,-133.179,46.265
0.360,0.400,0.417,-6.653,-136.047,43.518
0.335,0.387,0.454,-1.526,-134.216,44.434
0.584,0.441,0.331,11.108,-109.619,60.181
0.833,0.475,0.149,15.320,-89.417,67.017
1.098,0.574,-0.113,17.456,-70.984,61.768
1.141,0.613,-0.128,13.977,-68.115,50.903

0.883,1.241,-0.397,85.327,22.766,-18.860
0.910,1.293,-0.397,81.726,30.579,-23.010
0.946,1.320,-0.395,76.660,38.269,-25.574
0.881,1.360,-0.301,68.237,44.617,-39.551
0.803,1.362,-0.271,67.383,44.189,-49.133
0.615,1.331,-0.259,65.552,34.790,-65.857
0.511,1.322,-0.292,63.782,33.813,-69.580
0.336,1.309,-0.387,58.228,24.353,-74.585
0.261,1.299,-0.428,53.528,15.991,-77.026
0.196,1.278,-0.416,47.546,6.165,-80.017
0.124,1.253,-0.343,41.443,13.672,-76.538
0.098,1.267,-0.351,39.856,32.593,-69.214
0.086,1.358,-0.516,30.701,72.266,-50.476
0.120,1.366,-0.534,25.208,75.500,-45.654
0.165,1.386,-0.411,15.442,59.265,-49.622
0.112,1.384,-0.372,14.771,56.580,-54.688
0.029,1.404,-0.365,12.573,52.429,-57.434
-0.127,1.396,-0.335,9.827,42.358,-58.777
-0.165,1.396,-0.344,9.460,37.537,-59.082
-0.250,1.393,-0.390,8.301,31.982,-54.504
-0.281,1.343,-0.396,2.136,25.574,-53.223
-0.366,1.343,-0.459,-2.686,31.067,-47.913
-0.390,1.326,-0.443,-5.127,31.494,-43.518
-0.417,1.322,-0.420,-10.620,30.701,-38.757
-0.433,1.250,-0.341,-18.311,29.175,-27.954
-0.399,1.234,-0.305,-22.827,28.381,-22.400
-0.349,1.165,-0.243,-26.672,20.203,-13.916
-0.327,1.144,-0.203,-25.940,16.357,-10.010
-0.261,1.113,-0.151,-25.940,13.062,-4.700
-0.225,1.083,-0.143,-23.315,11.169,-3.845
-0.188,1.043,-0.149,-22.095,7.690,-4.089
-0.186,1.025,-0.145,-21.057,6.226,-2.991
-0.168,0.991,-0.117,-18.066,4.944,-2.380
-0.160,0.979,-0.111,-17.517,4.272,-2.136
-0.127,0.956,-0.113,-17.029,4.089,-0.366
-0.113,0.942,-0.102,-15.564,3.174,-1.221
-0.096,0.931,-0.090,-14.709,2.502,-0.549
-0.097,0.942,-0.130,-11.475,5.859,1.892
-0.065,0.941,-0.158,-12.817,8.179,3.174
-0.046,0.933,-0.150,-10.986,4.700,1.770
-0.047,0.936,-0.138,-11.841,3.723,1.831
-0.046,0.950,-0.179,-10.010,4.639,1.770
0.048,0.967,-0.211,-10.803,4.822,5.127
0.086,0.962,-0.212,-12.878,3.052,7.141
0.164,0.948,-0.214,-12.817,5.737,7.935
0.209,0.948,-0.255,-14.099,6.287,6.592
0.250,0.950,-0.260,-14.709,10.925,4.272
0.279,0.938,-0.248,-17.517,8.728,-4.761
0.265,0.929,-0.206,-17.456,7.385,-10.254
0.214,0.916,-0.165,-15.686,5.859,-15.991
0.195,0.903,-0.152,-15.015,6.714,-16.663
0.160,0.903,-0.157,-13.489,8.423,-16.663
0.163,0.916,-0.196,-10.925,10.681,-14.160
0.173,0.900,-0.195,-10.986,11.230,-12.878
0.182,0.905,-0.184,-11.597,16.785,-11.047
0.187,0.894,-0.173,-11.353,20.508,-10.498
0.228,0.924,-0.207,-8.118,29.297,-8.301
0.254,0.931,-0.223,-7.935,32.654,-7.996
0.269,0.941,-0.237,-8.179,33.264,-9.399
0.275,0.944,-0.239,-9.827,33.813,-13.123
0.274,0.940,-0.246,-10.620,32.043,-15.930
0.241,0.926,-0.259,-11.780,27.161,-22.766
0.226,0.917,-0.216,-12.268,22.339,-25.208
0.148,0.942,-0.277,-9.460,26.184,-29.419
0.109,0.946,-0.286,-8.606,27.771,-32.471
0.071,0.930,-0.273,-5.737,24.109,-33.508
0.009,0.934,-0.245,-4.578,25.513,-32.227
-0.017,0.946,-0.257,-4.272,30.212,-30.273
-0.024,0.966,-0.269,-1.892,38.269,-21.240
0.001,0.968,-0.282,-2.197,41.077,-19.653
0.064,0.961,-0.313,-2.319,46.997,-15.320
0.111,0.994,-0.317,-4.761,47.424,-16.235
0.103,0.979,-0.312,-3.967,49.072,-16.296
0.093,0.977,-0.308,-5.371,48.157,-19.104
0.098,0.980,-0.305,-6.836,46.814,-21.545
0.070,0.964,-0.272,-6.348,41.626,-25.330
0.070,0.959,-0.259,-5.188,41.077,-25.696
0.019,0.959,-0.257,-7.629,41.138,-27.466
0.008,0.949,-0.279,-5.127,41.748,-26.367
0.062,1.005,-0.289,-3.113,40.527,-27.039
0.046,1.000,-0.273,-6.104,42.725,-23.987
0.052,1.019,-0.266,-6.714,44.861,-23.926
0.066,1.055,-0.299,-8.667,48.035,-19.897
0.157,1.067,-0.277,-10.498,49.255,-15.930
0.188,1.090,-0.272,-14.465,49.011,-17.578
0.193,1.090,-0.254,-15.503,48.218,-19.043
0.200,1.066,-0.223,-16.846,41.443,-24.902
0.186,1.045,-0.209,-16.235,39.917,-25.940
0.155,1.053,-0.224,-15.015,40.283,-28.503
0.136,1.046,-0.201,-15.198,38.208,-32.471
0.110,1.047,-0.234,-12.390,36.438,-32.776
0.125,1.094,-0.274,-13.672,39.429,-32.898
0.157,1.093,-0.283,-13.428,41.870,-29.785
0.192,1.141,-0.274,-17.517,44.128,-30.396
0.223,1.165,-0.261,-17.029,45.593,-29.785
0.220,1.159,-0.204,-19.287,47.302,-32.104
0.213,1.200,-0.229,-19.165,49.072,-31.433
0.185,1.186,-0.246,-20.386,49.011,-33.630
0.193,1.189,-0.265,-20.569,51.636,-32.837
0.229,1.191,-0.321,-22.827,52.002,-35.156
0.229,1.194,-0.348,-23.315,53.833,-37.781
0.212,1.198,-0.369,-27.283,56.030,-42.358
0.121,1.240,-0.412,-30.762,59.265,-44.312
0.078,1.264,-0.396,-33.325,59.998,-45.593
-0.065,1.293,-0.342,-39.368,53.589,-49.438
-0.141,1.312,-0.303,-42.419,50.659,-48.401
-0.246,1.273,-0.186,-49.988,49.133,-43.396
-0.219,1.273,-0.179,-44.006,47.180,-36.621
-0.227,1.224,-0.204,-42.419,50.354,-30.334
-0.235,1.215,-0.239,-41.809,54.199,-25.269
-0.178,1.179,-0.320,-43.457,60.852,-18.433
-0.200,1.195,-0.408,-46.692,65.369,-15.686
-0.222,1.232,-0.557,-55.176,69.885,-17.334
-0.247,1.229,-0.526,-61.523,61.279,-17.456
-0.341,1.206,-0.312,-72.388,48.523,-19.775
-0.362,1.205,-0.223,-72.083,45.959,-18.921
-0.375,1.194,-0.168,-71.167,39.795,-14.343
-0.340,1.190,-0.145,-69.885,34.363,-13.000
-0.273,1.112,-0.075,-65.552,28.992,-10.010

