aX,aY,aZ,gX,gY,gZ
-0.798,-0.580,1.200,-118.896,-101.379,-11.353
-0.824,-0.598,1.341,-117.737,-98.206,-3.418
-0.826,-0.647,1.565,-111.938,-98.450,12.451
-0.824,-0.640,1.729,-106.567,-98.694,20.203
-0.858,-0.715,1.874,-88.135,-101.379,33.264
-0.863,-0.758,1.872,-77.026,-102.417,40.588
-0.751,-0.934,1.985,-52.246,-128.540,63.354
-0.607,-0.759,2.184,-50.171,-177.063,54.565
-0.524,-0.715,1.896,-8.789,-157.166,90.881
-0.469,-0.694,1.878,-10.071,-141.357,91.370
-0.333,-0.644,1.884,3.296,-113.098,119.080
-0.239,-0.594,1.866,10.010,-109.985,127.136
0.051,-0.505,1.756,14.343,-86.426,141.052
0.115,-0.485,1.726,9.399,-66.406,140.625
0.260,-0.448,1.709,6.714,-37.292,139.648
0.387,-0.436,1.665,9.949,-31.128,137.939
0.536,-0.413,1.664,11.780,-30.090,134.705
0.606,-0.368,1.616,18.738,-37.842,125.061
0.631,-0.342,1.599,22.156,-43.579,119.995
0.620,-0.244,1.565,26.489,-54.626,112.793
0.544,-0.187,1.569,27.893,-54.077,110.596
0.503,-0.126,1.491,34.546,-46.570,112.122
0.403,-0.117,1.509,34.851,-33.386,112.305
0.323,-0.107,1.481,37.292,-12.146,121.582
0.321,-0.071,1.445,37.231,-5.676,124.084
0.317,-0.074,1.564,41.565,-2.075,123.535
0.359,-0.019,1.540,42.664,-0.244,120.850
0.393,0.001,1.526,44.617,-1.953,118.835
0.476,0.071,1.406,51.025,-1.953,114.807
0.543,0.119,1.376,52.307,-0.366,111.816
0.665,0.213,1.324,52.246,10.071,102.173
0.659,0.224,1.319,47.363,19.714,94.543
0.617,0.226,1.321,44.678,24.841,88.501
0.510,0.217,1.294,43.701,23.804,81.421
0.457,0.225,1.221,41.809,23.132,75.500
0.283,0.174,1.408,38.330,31.189,72.449
0.299,0.155,1.348,48.828,17.944,79.956
0.333,0.161,1.355,48.523,21.606,79.346
0.375,0.055,1.308,56.458,38.940,81.055
0.476,0.051,1.253,60.547,42.786,84.717
0.624,0.062,1.201,61.584,49.622,85.693
0.909,0.069,1.088,62.378,60.669,80.261
0.998,0.079,1.045,61.401,58.167,74.036
1.027,0.080,1.006,59.570,51.147,65.491
0.954,0.051,0.946,54.260,30.396,43.396
0.871,0.047,0.953,51.025,19.165,32.776
0.789,0.046,0.998,48.767,7.385,22.339
0.665,-0.013,1.028,48.645,-10.620,7.141
0.610,-0.034,1.036,47.485,-13.611,2.747
0.520,-0.071,1.073,44.922,-10.437,-0.549
0.524,-0.084,1.097,46.692,-2.991,1.099
0.564,-0.096,1.103,49.133,8.423,1.892
0.669,-0.085,1.087,53.589,34.912,3.540
0.722,-0.098,1.025,57.312,43.396,2.014
0.771,-0.094,0.948,60.913,48.645,-3.662
0.831,-0.101,0.804,59.509,50.476,-8.423
0.835,-0.104,0.741,55.481,50.842,-13.062
0.742,-0.094,0.728,44.678,46.692,-23.926
0.699,-0.087,0.744,41.016,42.725,-29.114
0.629,-0.040,0.772,34.058,34.912,-39.978
0.547,-0.033,0.826,32.166,36.682,-42.419
0.456,-0.016,0.869,29.236,37.720,-46.631
0.375,0.025,0.885,32.349,33.936,-51.025
0.309,0.051,0.840,34.241,40.527,-53.223
0.270,0.090,0.763,38.696,45.593,-50.476
0.229,0.088,0.734,37.292,48.645,-56.213
0.239,0.110,0.686,36.865,50.720,-54.688
0.246,0.134,0.616,33.081,50.171,-55.176
0.239,0.144,0.610,28.870,50.293,-58.044
0.191,0.128,0.576,23.193,45.776,-62.012
0.178,0.138,0.560,18.738,43.335,-63.538
0.147,0.149,0.571,14.282,39.917,-64.148
0.096,0.168,0.608,8.728,38.147,-66.162
0.075,0.175,0.610,7.202,34.485,-65.125
0.045,0.198,0.562,3.357,30.090,-64.026
0.035,0.196,0.570,-0.183,31.067,-65.796
0.007,0.191,0.560,-2.258,32.654,-67.444
-0.073,0.166,0.571,-6.531,30.457,-67.749
-0.096,0.156,0.574,-7.629,26.733,-68.665
-0.156,0.120,0.597,-8.789,20.447,-72.327
-0.174,0.112,0.624,-10.803,17.517,-71.655
-0.180,0.108,0.632,-13.000,11.719,-70.496
-0.196,0.116,0.671,-13.733,10.376,-68.787
-0.203,0.107,0.690,-15.015,9.827,-67.200
-0.208,0.097,0.679,-15.381,6.165,-62.439
-0.222,0.102,0.677,-16.785,5.676,-62.134
-0.245,0.098,0.722,-20.813,7.324,-58.716
-0.266,0.095,0.750,-21.301,8.423,-58.228
-0.305,0.097,0.801,-23.987,7.141,-56.580
-0.315,0.107,0.831,-23.682,5.737,-55.481
-0.332,0.115,0.846,-24.658,4.944,-53.955
-0.370,0.122,0.874,-25.635,0.977,-51.514
-0.371,0.142,0.906,-24.841,-1.526,-48.767
-0.408,0.153,0.946,-22.522,-4.089,-45.776
-0.417,0.142,0.954,-21.606,-6.226,-44.312
-0.428,0.144,0.961,-20.081,-7.202,-41.626
-0.449,0.141,0.963,-20.935,-8.606,-40.344
-0.468,0.130,0.942,-20.508,-8.789,-34.241
-0.467,0.125,0.959,-21.545,-8.606,-32.471
-0.474,0.130,0.967,-24.902,-8.789,-26.855
-0.460,0.140,0.987,-25.696,-9.888,-24.536
-0.446,0.149,0.991,-26.672,-9.949,-21.484
-0.403,0.166,1.002,-28.320,-13.489,-15.137
-0.375,0.184,1.003,-29.785,-14.099,-13.916
-0.326,0.194,0.998,-29.236,-13.184,-10.437
-0.302,0.206,1.013,-30.334,-9.460,-9.399
-0.249,0.179,0.975,-28.503,-7.996,-8.850
-0.231,0.161,0.959,-30.029,-8.240,-9.033
-0.222,0.157,0.967,-32.654,-11.230,-8.118
-0.232,0.143,0.983,-32.532,-11.780,-8.179
-0.228,0.143,0.996,-34.058,-13.550,-6.714
-0.206,0.135,1.031,-34.363,-13.428,-6.042
-0.198,0.130,1.051,-33.997,-14.343,-5.066
-0.158,0.140,1.095,-32.349,-15.930,-4.028
-0.145,0.142,1.120,-30.823,-13.977,-3.479
-0.115,0.124,1.124,-25.208,-12.451,-5.859
-0.114,0.122,1.114,-22.949,-12.695,-4.578
-0.103,0.107,1.082,-19.653,-14.832,-5.554
-0.105,0.102,1.066,-18.860,-14.893,-5.493

-0.886,-0.731,1.079,-180.481,-103.943,-44.434
-0.933,-0.791,1.350,-179.016,-114.380,-41.382
-1.038,-0.840,1.739,-163.513,-148.865,-28.809
-1.045,-0.848,1.863,-148.376,-171.143,-19.836
-1.085,-0.852,1.898,-111.084,-208.557,2.258
-1.105,-0.885,1.797,-92.224,-222.595,17.212
-1.062,-0.958,1.812,-69.336,-227.112,51.086
-0.970,-0.954,1.880,-60.120,-221.680,69.946
-0.687,-0.945,1.906,-35.950,-207.153,104.614
-0.462,-0.912,1.870,-24.963,-201.355,120.789
0.092,-0.863,1.734,-5.493,-189.087,145.020
0.542,-0.716,1.620,4.761,-186.951,157.043
0.906,-0.466,1.826,4.517,-205.566,139.343
1.056,-0.480,1.713,24.841,-186.401,157.410
1.178,-0.461,1.712,16.724,-165.405,130.310
1.204,-0.454,1.762,24.780,-156.921,132.690
1.202,-0.410,1.898,27.283,-140.991,123.718
1.207,-0.372,1.917,24.902,-129.822,116.150
1.175,-0.324,1.950,27.588,-79.346,114.441
1.182,-0.289,1.922,31.372,-60.059,115.906
1.235,-0.171,1.929,36.926,-21.667,115.173
1.321,-0.104,1.884,48.828,-19.104,117.004
1.383,0.001,1.755,63.721,-17.822,106.873
1.348,0.028,1.704,69.275,-19.226,99.854
1.324,0.059,1.629,75.134,-19.470,92.224
1.155,0.094,1.565,74.768,-8.179,76.233
1.075,0.111,1.539,78.003,-4.761,72.815
0.958,0.147,1.519,78.552,15.686,66.345
0.895,0.147,1.509,79.468,30.273,62.805
0.857,0.146,1.484,79.956,42.358,60.547
0.788,0.152,1.405,83.191,58.777,59.509
0.763,0.179,1.341,84.290,64.819,58.777
0.728,0.197,1.292,84.045,71.106,57.922
0.635,0.218,1.201,80.505,79.041,53.589
0.585,0.229,1.166,78.308,78.979,52.246
0.531,0.242,1.121,73.669,77.026,50.659
0.468,0.271,1.067,70.313,74.829,50.110
0.448,0.276,1.058,68.726,73.792,49.683
0.447,0.281,1.029,67.383,68.298,49.133
0.440,0.237,0.993,69.031,65.186,48.584
0.421,0.187,0.947,68.298,63.843,48.767
0.402,0.121,0.912,64.514,62.805,52.429
0.418,0.090,0.930,62.561,65.796,55.664
0.442,0.069,0.938,60.913,69.092,59.753
0.515,0.019,0.936,58.350,75.256,65.002
0.558,0.014,0.935,55.969,75.378,66.223
0.649,0.024,0.919,54.932,69.824,65.430
0.697,0.013,0.888,54.199,64.087,61.829
0.725,0.008,0.854,54.260,59.875,57.495
0.754,-0.000,0.812,50.293,45.166,46.265
0.753,0.004,0.810,47.485,37.476,38.757
0.750,0.000,0.795,45.166,30.151,32.288
0.720,0.012,0.791,39.978,16.846,20.264
0.661,-0.001,0.787,38.269,11.841,14.954
0.552,-0.029,0.779,34.058,9.766,9.644
0.537,-0.033,0.779,32.288,13.123,9.644
0.552,-0.045,0.771,31.128,18.860,10.437
0.614,-0.072,0.738,28.809,31.067,9.827
0.639,-0.081,0.726,28.381,36.804,9.216
0.671,-0.098,0.726,27.649,41.382,8.667
0.749,-0.093,0.699,24.414,44.678,3.601
0.785,-0.075,0.699,22.644,44.373,0.427
0.821,-0.012,0.743,20.203,41.443,-11.536
0.797,0.012,0.748,20.508,39.124,-17.944
0.758,0.018,0.728,20.264,35.156,-25.269
0.666,0.030,0.695,19.531,29.846,-34.790
0.632,0.036,0.683,17.212,30.701,-40.833
0.538,0.039,0.649,14.893,31.433,-47.668
0.483,0.028,0.654,12.878,32.776,-50.659
0.436,0.026,0.642,12.207,32.166,-51.697
0.357,0.054,0.627,8.545,31.372,-51.392
0.334,0.087,0.631,8.240,31.494,-50.720
0.327,0.114,0.625,5.615,31.433,-51.270
0.337,0.167,0.634,3.723,31.677,-50.354
0.372,0.184,0.619,5.676,31.616,-50.293
0.390,0.201,0.565,-0.488,35.461,-58.838
0.378,0.210,0.531,-3.418,36.194,-62.073
0.364,0.202,0.497,-5.005,38.025,-61.707
0.324,0.198,0.429,-12.756,36.438,-67.627
0.308,0.213,0.428,-19.714,36.987,-70.190
0.257,0.192,0.506,-30.823,39.368,-74.890
0.226,0.175,0.561,-35.339,40.405,-76.660
0.200,0.159,0.633,-42.236,38.391,-82.275
0.105,0.116,0.758,-43.762,34.485,-84.839
0.050,0.100,0.812,-42.603,31.738,-86.731
-0.020,0.073,0.859,-38.818,22.217,-88.562
-0.060,0.078,0.904,-36.438,21.545,-87.585
-0.167,0.043,0.955,-30.579,19.653,-83.252
-0.192,0.053,0.932,-27.283,17.334,-79.102
-0.206,0.052,0.901,-22.278,16.907,-69.885
-0.205,0.058,0.881,-19.958,19.592,-67.261
-0.198,0.075,0.890,-19.653,23.743,-62.561
-0.164,0.061,0.889,-18.860,23.315,-63.477
-0.149,0.046,0.886,-17.517,21.240,-61.646
-0.167,0.038,0.895,-18.250,16.052,-60.852
-0.191,0.037,0.912,-18.921,10.742,-62.317
-0.235,0.032,0.904,-17.029,3.052,-62.805
-0.278,0.043,0.909,-16.846,-0.671,-63.232
-0.308,0.058,0.931,-17.090,-7.935,-57.434
-0.303,0.086,0.949,-17.334,-8.301,-55.237
-0.292,0.112,0.977,-19.043,-5.981,-50.964
-0.275,0.124,0.989,-19.348,-4.089,-48.828
-0.259,0.100,0.992,-18.555,-1.770,-46.997
-0.277,0.086,0.990,-18.127,-1.099,-45.288
-0.316,0.067,0.986,-18.433,-1.770,-44.556
-0.354,0.051,0.998,-18.799,-9.460,-41.077
-0.349,0.043,0.998,-18.677,-13.062,-40.405
-0.347,0.064,1.020,-20.996,-18.188,-31.555
-0.325,0.086,1.044,-22.827,-19.104,-29.297
-0.280,0.116,1.047,-22.095,-15.869,-25.879
-0.271,0.116,1.045,-22.400,-12.817,-24.658
-0.242,0.117,1.016,-23.010,-9.155,-21.057
-0.240,0.111,1.022,-24.414,-8.057,-21.240
-0.241,0.079,1.028,-26.184,-7.629,-18.372
-0.245,0.085,1.056,-28.503,-9.033,-16.602
-0.236,0.075,1.092,-29.175,-11.353,-13.306
-0.235,0.074,1.098,-29.053,-12.146,-13.000
-0.209,0.090,1.110,-27.832,-13.428,-8.850
-0.191,0.106,1.110,-25.696,-14.221,-5.737

-1.362,-0.678,0.791,-135.864,-110.901,-86.365
-1.430,-0.662,1.073,-140.930,-123.108,-71.777
-1.386,-0.626,1.422,-130.371,-145.630,-46.753
-1.360,-0.594,1.553,-122.253,-153.137,-37.231
-1.270,-0.542,1.598,-101.135,-170.654,-13.489
-1.185,-0.506,1.484,-88.440,-182.068,-3.052
-0.988,-0.463,1.272,-72.327,-206.116,18.127
-0.878,-0.442,1.169,-66.772,-216.309,26.794
-0.722,-0.522,0.936,-62.866,-229.126,44.922
-0.669,-0.615,0.975,-68.848,-225.525,55.237
-0.549,-0.708,1.357,-83.618,-221.619,79.407
-0.438,-0.731,1.497,-74.524,-221.619,102.051
-0.089,-0.729,1.695,-66.528,-216.187,113.037
0.363,-0.746,1.718,-46.570,-195.435,129.761
0.588,-0.716,1.700,-39.063,-186.462,134.705
0.851,-0.630,1.804,-25.757,-169.983,132.629
1.328,-0.686,1.724,-13.367,-164.246,132.019
1.460,-0.588,1.687,2.747,-186.462,108.154
1.329,-0.656,1.758,1.160,-178.955,101.257
1.187,-0.643,1.777,9.094,-165.283,94.177
0.942,-0.604,1.859,16.418,-148.254,103.699
0.907,-0.543,1.906,25.696,-137.024,105.774
1.027,-0.454,1.807,23.193,-92.712,101.868
1.068,-0.381,1.718,25.452,-75.317,107.117
1.113,-0.294,1.649,32.104,-43.091,104.858
1.136,-0.267,1.604,34.241,-32.349,102.905
1.099,-0.201,1.489,37.170,-25.696,89.600
0.970,-0.191,1.679,37.842,-18.860,82.153
0.848,-0.209,1.613,54.260,-31.677,78.796
0.792,-0.169,1.561,58.411,-31.494,78.308
0.710,-0.159,1.605,56.152,-20.813,74.097
0.582,-0.151,1.581,63.843,-9.155,77.393
0.557,-0.117,1.555,67.505,-2.502,81.299
0.582,-0.068,1.423,74.158,13.611,86.792
0.568,-0.044,1.422,74.097,25.635,87.524
0.596,-0.020,1.325,79.346,26.367,90.210
0.605,0.025,1.225,79.163,33.936,90.698
0.566,0.023,1.193,76.294,36.865,87.769
0.487,0.042,1.145,73.853,40.833,86.670
0.491,0.052,1.100,71.777,41.626,87.585
0.478,0.056,1.053,70.313,41.687,87.219
0.483,0.031,0.966,62.805,46.387,85.571
0.513,0.008,0.927,58.472,47.424,84.412
0.550,-0.016,0.901,53.223,47.058,83.740
0.633,-0.045,0.947,41.809,49.438,82.642
0.672,-0.025,1.010,37.537,51.575,82.886
0.703,-0.058,1.151,36.926,59.143,79.346
0.667,-0.087,1.176,39.490,59.265,79.346
0.634,-0.102,1.177,42.114,57.800,78.308
0.595,-0.115,1.105,47.485,51.025,78.369
0.609,-0.111,1.048,50.415,49.316,78.735
0.637,-0.115,1.010,49.988,44.739,74.768
0.646,-0.127,0.985,49.011,42.358,71.594
0.673,-0.122,0.974,48.828,36.194,68.359
0.749,-0.139,0.927,47.424,32.227,61.157
0.775,-0.136,0.955,45.288,29.114,55.969
0.837,-0.136,0.985,47.363,27.161,45.105
0.842,-0.135,0.991,47.302,26.489,37.537
0.827,-0.150,0.960,48.645,21.118,32.654
0.786,-0.164,0.879,50.842,9.521,24.170
0.779,-0.149,0.878,52.429,9.277,21.667
0.763,-0.137,0.883,51.453,7.141,14.343
0.696,-0.136,0.858,50.354,7.385,10.681
0.665,-0.147,0.823,49.561,9.399,9.460
0.696,-0.132,0.795,45.410,16.479,8.606
0.726,-0.124,0.804,43.091,20.386,7.324
0.741,-0.148,0.809,41.809,23.621,4.150
0.791,-0.154,0.771,39.795,23.804,0.427
0.819,-0.144,0.778,38.879,24.780,-3.296
0.842,-0.130,0.778,39.246,24.963,-9.094
0.837,-0.133,0.731,38.208,25.146,-19.775
0.817,-0.113,0.734,37.598,26.794,-23.560
0.788,-0.077,0.727,34.607,31.067,-32.227
0.772,-0.066,0.715,33.081,33.142,-35.645
0.671,-0.013,0.732,28.992,33.264,-44.128
0.671,-0.021,0.691,28.381,33.325,-48.706
0.598,-0.010,0.703,27.527,37.476,-51.636
0.549,0.018,0.625,25.146,37.231,-56.213
0.519,0.026,0.599,22.827,36.743,-58.105
0.481,0.076,0.563,16.602,35.767,-62.439
0.473,0.112,0.567,13.184,35.645,-63.477
0.477,0.125,0.566,10.742,36.499,-65.918
0.444,0.149,0.552,4.333,38.208,-71.045
0.428,0.169,0.547,1.587,41.199,-73.975
0.392,0.167,0.547,-5.310,46.021,-80.933
0.371,0.156,0.556,-8.240,46.753,-84.351
0.348,0.164,0.570,-12.390,48.218,-85.876
0.307,0.153,0.616,-19.226,51.331,-89.905
0.274,0.138,0.628,-22.827,51.819,-91.309
0.190,0.134,0.691,-27.832,45.776,-91.064
0.159,0.142,0.713,-28.748,45.654,-90.149
0.134,0.149,0.729,-31.738,48.828,-88.074
0.089,0.159,0.772,-31.555,50.171,-87.280
0.072,0.154,0.763,-30.457,49.622,-86.182
0.054,0.114,0.726,-29.297,51.147,-83.191
0.067,0.103,0.728,-30.029,49.622,-81.787
0.058,0.089,0.732,-29.663,44.312,-81.299
-0.021,-0.024,0.735,-30.457,42.725,-81.726
-0.093,-0.040,0.830,-33.203,34.607,-80.811
-0.106,-0.051,0.864,-33.630,30.457,-81.238
-0.124,-0.076,0.891,-28.503,20.264,-79.224
-0.131,-0.081,0.889,-24.780,13.245,-78.735
-0.124,-0.069,0.892,-20.203,8.972,-76.721
-0.125,-0.058,0.862,-17.212,7.935,-75.806
-0.132,-0.061,0.816,-15.991,7.812,-74.341
-0.162,-0.074,0.826,-19.104,11.658,-70.984
-0.188,-0.067,0.833,-20.081,10.742,-69.763
-0.230,-0.042,0.857,-23.560,12.512,-66.956
-0.278,-0.058,0.881,-23.132,11.902,-68.481
-0.344,-0.086,0.892,-22.766,8.301,-67.566
-0.371,-0.066,0.904,-25.574,6.287,-65.918
-0.456,-0.094,0.947,-27.100,4.883,-65.735
-0.525,-0.105,0.961,-27.161,0.732,-64.575
-0.569,-0.086,1.000,-28.687,-9.216,-58.960
-0.583,-0.071,1.033,-28.748,-11.414,-57.007
-0.621,-0.071,1.105,-27.710,-15.198,-49.927
-0.637,-0.060,1.130,-27.405,-16.785,-45.532
-0.619,-0.045,1.165,-23.926,-19.104,-35.217
-0.596,-0.016,1.167,-22.034,-20.691,-29.907

-1.277,-0.955,0.436,-174.377,-13.184,-191.772
-1.343,-0.977,0.492,-174.866,-8.789,-175.537
-1.306,-0.931,0.608,-175.781,-4.944,-140.564
-1.272,-0.922,0.635,-173.645,-10.254,-128.601
-1.200,-0.896,0.637,-168.884,-39.001,-111.267
-1.232,-0.951,0.710,-167.419,-54.810,-106.995
-1.340,-1.011,1.093,-166.199,-90.332,-99.304
-1.407,-1.047,1.287,-159.302,-110.291,-95.093
-1.615,-1.173,1.735,-135.803,-140.259,-80.200
-1.773,-1.166,2.022,-101.257,-163.696,-45.410
-1.786,-1.157,2.021,-76.111,-176.392,-24.719
-1.665,-1.135,1.838,-25.696,-193.237,22.888
-1.526,-1.123,1.658,-4.822,-198.669,45.837
-1.169,-1.081,1.288,24.597,-198.303,89.111
-0.939,-1.081,1.100,33.386,-198.242,106.689
-0.443,-1.002,0.777,36.255,-203.064,134.949
-0.186,-0.897,0.665,33.203,-208.008,144.836
0.274,-0.740,0.510,20.325,-212.280,144.714
0.505,-0.728,0.435,10.803,-207.703,140.808
1.166,-0.723,0.541,-9.094,-199.707,135.986
1.137,-0.638,0.855,-29.907,-219.421,103.577
1.144,-0.599,1.190,-38.025,-193.359,109.619
1.265,-0.632,1.324,-38.269,-182.434,97.961
1.162,-0.706,1.479,-27.100,-160.828,94.727
1.070,-0.732,1.634,-26.550,-149.048,91.492
1.099,-0.674,1.596,-8.728,-144.287,89.783
1.086,-0.633,1.630,-7.385,-130.432,88.989
1.114,-0.600,1.660,-2.441,-115.479,92.468
1.160,-0.495,1.794,11.597,-98.328,95.032
1.242,-0.430,1.833,26.672,-98.450,98.389
1.232,-0.314,1.897,45.349,-87.830,92.957
1.189,-0.292,1.978,50.232,-79.895,87.402
1.075,-0.271,1.916,69.336,-63.171,83.313
1.063,-0.241,1.886,79.529,-54.565,85.510
1.030,-0.216,1.844,87.524,-46.875,87.219
1.006,-0.153,1.802,94.116,-18.982,85.999
1.028,-0.135,1.674,105.164,-16.846,85.205
1.011,-0.125,1.614,111.267,2.014,82.092
0.958,-0.118,1.597,114.563,7.690,80.994
0.866,-0.083,1.532,119.141,17.822,77.515
0.803,-0.073,1.503,120.850,24.170,75.562
0.741,-0.050,1.468,122.253,29.846,75.073
0.670,-0.014,1.388,123.413,38.879,74.768
0.641,0.004,1.362,122.986,44.250,74.829
0.607,0.047,1.269,126.404,47.363,74.158
0.593,0.065,1.187,127.441,46.570,73.486
0.547,0.081,1.118,127.625,46.021,73.364
0.527,0.097,1.004,124.817,45.471,78.247
0.550,0.106,0.964,121.338,49.255,80.872
0.593,0.052,0.881,112.671,57.312,84.106
0.652,0.021,0.846,106.750,63.171,86.792
0.703,-0.004,0.828,101.440,67.261,88.745
0.844,-0.015,0.845,89.478,68.115,85.632
0.904,-0.014,0.851,85.449,65.613,82.458
0.992,0.017,0.821,79.529,53.833,70.618
1.005,0.024,0.828,76.050,46.875,61.890
0.990,0.036,0.836,73.364,41.199,54.382
0.919,0.008,0.761,68.176,25.818,39.856
0.878,0.009,0.730,63.904,21.423,34.729
0.836,0.011,0.729,52.490,20.142,26.611
0.722,-0.012,0.799,47.852,24.292,24.353
0.682,-0.038,0.830,44.800,29.907,24.902
0.694,-0.081,0.837,41.138,43.701,28.015
0.736,-0.090,0.834,39.734,49.500,29.602
0.788,-0.118,0.827,39.368,56.885,30.396
0.917,-0.115,0.856,36.072,65.979,26.855
0.955,-0.105,0.850,37.537,68.726,22.583
1.007,-0.102,0.772,39.673,67.505,8.057
1.000,-0.091,0.759,38.086,65.186,-0.549
0.980,-0.085,0.745,37.659,60.791,-6.836
0.936,-0.057,0.729,35.217,52.795,-19.592
0.892,-0.062,0.730,35.034,50.781,-27.527
0.775,-0.083,0.688,33.447,43.030,-38.818
0.719,-0.071,0.679,33.508,40.710,-42.053
0.646,-0.047,0.643,31.738,43.518,-45.227
0.611,-0.025,0.624,30.151,45.898,-45.288
0.584,0.002,0.619,28.137,49.133,-47.241
0.565,0.052,0.578,24.414,58.960,-49.316
0.551,0.067,0.578,21.179,61.829,-51.025
0.525,0.095,0.581,15.991,64.697,-56.213
0.519,0.098,0.578,14.099,64.636,-60.181
0.517,0.111,0.594,12.695,64.941,-61.584
0.509,0.127,0.604,9.827,60.242,-70.740
0.460,0.107,0.586,9.399,58.899,-74.829
0.418,0.090,0.555,6.531,53.284,-79.346
0.366,0.073,0.521,1.343,52.063,-82.153
0.343,0.088,0.527,-1.099,51.147,-82.397
0.284,0.107,0.543,-7.141,48.035,-86.121
0.263,0.118,0.559,-9.827,47.058,-86.304
0.253,0.126,0.581,-12.878,46.448,-88.745
0.204,0.115,0.620,-16.174,50.110,-91.125
0.173,0.104,0.642,-17.456,50.171,-93.018
0.123,0.097,0.684,-18.433,48.096,-94.666
0.113,0.076,0.680,-19.470,49.194,-96.069
0.099,0.048,0.630,-18.982,49.377,-96.375
0.099,0.045,0.600,-20.081,49.622,-96.252
0.113,0.045,0.570,-20.630,49.561,-95.337
0.143,0.041,0.511,-21.606,49.927,-96.436
0.149,0.035,0.486,-22.583,49.744,-97.656
0.132,0.008,0.414,-25.757,43.762,-100.220
0.101,-0.007,0.388,-27.893,39.429,-100.952
0.029,-0.021,0.395,-33.020,33.020,-103.149
0.000,-0.023,0.430,-36.377,29.480,-104.431
-0.095,0.006,0.491,-38.940,24.170,-105.225
-0.141,0.022,0.530,-41.138,20.996,-106.323
-0.207,0.043,0.600,-42.114,20.752,-105.957
-0.225,0.070,0.629,-43.701,21.118,-105.164
-0.334,0.010,0.667,-44.189,23.743,-106.689
-0.408,-0.042,0.674,-45.227,24.292,-108.948
-0.565,-0.114,0.767,-47.485,15.137,-107.117
-0.631,-0.126,0.792,-47.546,8.728,-105.530
-0.810,-0.195,0.866,-47.791,-6.531,-101.807
-0.849,-0.170,0.938,-46.997,-15.503,-95.642
-0.906,-0.115,1.074,-45.471,-26.367,-81.665
-0.918,-0.063,1.133,-44.434,-28.137,-74.951
-0.887,-0.009,1.179,-39.490,-24.597,-60.852
-0.858,0.006,1.174,-37.598,-20.752,-52.917
-0.803,-0.023,1.167,-37.292,-17.151,-41.077
-0.782,-0.016,1.172,-36.743,-16.113,-33.752

2.200,0.324,-0.236,-29.297,123.108,-157.715
2.312,0.275,-0.372,-50.476,131.836,-188.599
2.205,0.051,-0.591,-85.693,119.629,-258.728
2.001,-0.101,-0.685,-98.816,106.018,-291.077
1.332,-0.467,-0.732,-128.540,68.542,-338.928
0.884,-0.645,-0.745,-141.541,47.424,-349.121
0.142,-0.900,-0.729,-170.715,36.621,-342.957
-0.184,-1.022,-0.535,-187.378,48.401,-331.970
-0.679,-1.216,-0.046,-213.379,67.871,-299.500
-0.779,-1.264,0.125,-216.003,77.148,-282.654
-1.057,-1.496,0.255,-212.219,80.811,-252.502
-1.117,-1.472,0.305,-208.984,71.045,-233.521
-1.170,-1.476,0.417,-203.552,57.129,-209.839
-1.383,-1.507,0.661,-194.946,31.616,-193.787
-1.467,-1.426,0.787,-185.242,11.169,-184.814
-1.534,-1.262,0.876,-157.227,-23.682,-161.987
-1.581,-1.227,0.844,-143.127,-39.734,-148.376
-1.589,-1.139,0.597,-117.432,-67.993,-119.934
-1.545,-1.100,0.488,-112.976,-81.299,-105.713
-1.476,-1.031,0.532,-107.788,-108.704,-75.806
-1.404,-0.961,0.606,-104.431,-126.343,-60.730
-1.246,-0.950,0.770,-88.196,-156.128,-41.870
-1.078,-0.916,0.861,-63.965,-185.852,-27.832
-1.031,-0.928,0.854,-50.232,-200.500,-20.996
-0.872,-0.917,0.803,-22.583,-226.990,-0.793
-0.791,-0.913,0.792,-14.954,-229.187,10.315
-0.598,-0.936,0.632,-0.671,-232.971,32.593
-0.473,-0.946,0.634,2.625,-230.774,45.532
-0.122,-0.916,0.722,5.432,-231.812,70.374
0.117,-0.895,0.797,5.676,-229.797,78.125
0.365,-0.910,0.899,7.019,-229.980,81.238
0.718,-0.971,1.328,12.512,-220.093,75.806
1.016,-1.055,1.514,31.494,-219.971,81.421
1.086,-1.006,1.698,49.683,-264.587,52.185
0.949,-1.062,1.905,58.716,-245.117,60.486
0.638,-1.058,2.059,84.900,-233.215,53.589
0.518,-1.051,2.013,113.220,-228.271,77.576
0.464,-0.875,1.864,152.771,-222.473,115.967
0.521,-0.726,1.779,158.447,-212.280,127.197
0.866,-0.480,1.732,148.010,-164.673,144.165
1.628,-0.197,2.448,131.653,-127.869,134.033
0.974,0.018,1.854,155.151,-111.389,123.535
1.313,-0.532,1.264,174.866,-114.807,95.764
1.307,-0.204,1.514,120.056,-65.613,120.056
1.193,-0.262,1.779,102.112,-56.641,107.666
0.998,-0.239,1.860,104.553,-40.283,98.694
0.922,-0.223,1.874,109.009,-36.194,100.464
0.876,-0.167,1.892,111.023,-29.907,102.112
0.787,-0.108,1.802,123.047,-9.766,109.802
0.797,-0.068,1.699,131.775,1.160,111.206
0.801,-0.009,1.398,146.057,10.986,112.732
0.827,0.010,1.255,145.874,16.663,111.633
0.911,0.039,0.994,144.775,28.503,108.276
0.940,0.047,0.869,139.893,34.424,101.196
0.939,0.017,0.770,124.084,41.687,89.294
0.922,0.056,0.796,116.577,40.161,85.449
0.887,0.082,0.828,110.229,37.415,80.444
0.788,0.099,0.823,101.440,37.109,71.472
0.711,0.117,0.828,98.328,37.598,70.496
0.646,0.108,0.835,90.820,43.030,72.388
0.594,0.089,0.815,86.609,48.096,74.890
0.596,0.061,0.794,83.069,53.467,78.247
0.653,0.056,0.788,72.937,65.063,85.144
0.698,0.065,0.799,68.237,67.749,87.585
0.761,0.065,0.806,65.063,68.176,85.754
0.879,0.100,0.835,61.035,64.514,78.918
0.920,0.117,0.854,60.059,60.364,73.608
0.941,0.111,0.844,59.753,54.565,65.796
0.896,0.013,0.747,59.631,39.856,49.011
0.839,-0.023,0.726,54.871,34.607,43.457
0.700,-0.043,0.782,44.250,33.508,39.429
0.671,-0.045,0.831,41.321,38.940,39.551
0.660,-0.052,0.867,37.842,46.265,40.222
0.671,-0.060,0.903,33.752,61.951,44.128
0.699,-0.048,0.919,30.762,66.650,44.373
0.836,-0.030,0.929,31.189,71.472,43.274
0.892,-0.052,0.898,32.043,72.205,38.574
0.926,-0.073,0.880,32.532,71.899,33.691
0.920,-0.072,0.844,28.198,67.139,19.165
0.881,-0.083,0.842,25.696,64.209,12.146
0.761,-0.082,0.871,21.545,54.504,-1.221
0.694,-0.077,0.897,19.287,50.781,-5.310
0.639,-0.058,0.914,20.081,49.255,-8.545
0.534,-0.073,0.909,19.104,51.514,-12.878
0.498,-0.058,0.918,19.775,52.368,-12.451
0.465,-0.042,0.905,20.142,56.458,-8.789
0.471,-0.030,0.892,19.836,61.523,-7.507
0.488,-0.026,0.889,19.836,66.650,-7.019
0.535,-0.036,0.830,21.667,74.524,-6.958
0.562,-0.048,0.814,21.179,78.064,-9.033
0.576,-0.024,0.823,19.104,77.820,-13.733
0.589,-0.006,0.823,19.653,76.050,-16.724
0.595,0.008,0.822,21.973,74.463,-19.348
0.571,0.002,0.770,22.156,69.092,-30.151
0.559,0.014,0.735,21.179,65.857,-34.546
0.535,0.016,0.668,20.691,61.890,-40.161
0.533,0.018,0.632,18.738,61.707,-42.908
0.526,0.012,0.583,16.785,60.425,-46.692
0.499,0.013,0.518,9.644,60.852,-51.758
0.484,0.028,0.500,6.104,61.035,-54.199
0.467,0.043,0.476,0.977,61.035,-60.181
0.470,0.042,0.459,-0.793,59.570,-65.796
0.467,0.028,0.459,-4.700,58.899,-70.801
0.424,0.001,0.466,-8.972,53.223,-82.947
0.390,0.001,0.487,-12.024,48.706,-87.280
0.373,0.031,0.499,-14.465,40.222,-94.849
0.340,0.041,0.524,-18.677,38.635,-100.830
0.300,0.039,0.535,-20.691,36.560,-110.168
0.215,0.052,0.493,-20.752,33.264,-110.962
0.147,0.054,0.477,-20.874,31.128,-111.267
0.014,0.039,0.417,-25.757,36.133,-110.962
-0.043,0.026,0.411,-29.602,41.748,-109.375
-0.119,-0.001,0.398,-36.133,51.392,-104.004
-0.151,-0.020,0.426,-40.344,54.565,-103.455
-0.262,-0.082,0.504,-49.866,50.232,-104.492
-0.329,-0.098,0.572,-52.734,42.847,-105.103
-0.463,-0.113,0.733,-58.838,26.001,-107.666
-0.543,-0.120,0.834,-62.134,17.883,-107.361
-0.681,-0.109,1.025,-58.960,1.404,-107.910

-1.058,-0.171,1.317,-31.372,-22.644,-71.228
-1.068,-0.171,1.324,-27.893,-23.437,-60.852
-1.016,-0.134,1.299,-19.653,-21.912,-38.208
-0.955,-0.130,1.281,-17.090,-19.775,-26.245
-0.802,-0.098,1.226,-12.573,-17.822,-8.972
-0.719,-0.080,1.215,-10.437,-17.883,-1.099
-0.576,-0.055,1.154,-10.559,-18.982,9.705
-0.498,-0.030,1.135,-9.888,-18.860,13.062
-0.359,-0.016,1.110,-12.207,-17.395,18.677
-0.313,-0.013,1.103,-11.536,-17.517,20.264
-0.272,-0.018,1.080,-12.207,-18.188,20.386
-0.219,-0.061,1.054,-12.878,-19.958,20.752
-0.195,-0.065,1.055,-15.259,-20.447,23.865
-0.117,-0.073,1.077,-17.029,-20.081,24.231
-0.086,-0.087,1.075,-17.578,-18.982,24.780
-0.023,-0.080,1.105,-17.822,-17.029,26.306
0.020,-0.074,1.145,-16.968,-17.273,26.062
0.100,-0.049,1.186,-12.817,-14.587,23.071
0.111,-0.033,1.198,-10.742,-13.794,20.996
0.148,-0.016,1.110,-4.089,-14.099,16.052
0.142,-0.011,1.098,-2.747,-13.672,14.465
0.131,0.002,1.029,-0.916,-14.465,11.841
0.154,0.034,1.001,0.427,-15.381,10.437
0.153,0.047,1.000,-1.892,-15.625,7.507
0.152,0.068,0.971,-3.723,-15.564,3.662
0.119,0.061,0.982,-3.845,-15.808,0.488
0.070,0.070,0.974,-4.883,-18.372,-0.488
0.060,0.100,0.984,-6.165,-19.165,-0.183
0.060,0.117,0.992,-7.385,-18.005,-0.183
0.041,0.125,0.980,-7.996,-14.038,-1.221
0.035,0.127,0.971,-8.423,-13.672,-1.770
0.033,0.141,0.972,-9.827,-13.367,-1.160
0.039,0.142,0.976,-11.230,-13.245,-1.404
0.040,0.142,0.975,-11.841,-11.963,-2.441
0.038,0.119,0.974,-14.282,-10.864,-4.761
0.031,0.111,0.976,-14.709,-11.414,-5.798
0.004,0.077,0.992,-15.930,-13.367,-5.737
0.007,0.102,1.025,-17.822,-13.977,-5.371
0.017,0.081,1.045,-17.334,-12.878,-6.531
0.013,0.070,1.048,-16.663,-11.475,-6.104
0.004,0.047,1.058,-17.456,-10.437,-7.935
-0.010,0.024,1.073,-17.395,-11.597,-7.690
-0.021,0.016,1.088,-18.433,-12.634,-8.484
-0.041,0.023,1.110,-15.869,-12.939,-6.714
-0.045,0.020,1.112,-14.648,-12.451,-6.226
-0.042,0.010,1.103,-12.573,-10.803,-4.761
-0.026,0.022,1.085,-13.123,-11.169,-3.235
-0.004,0.029,1.070,-11.719,-11.047,-2.136
0.021,0.042,1.067,-12.512,-11.353,-2.014
0.031,0.046,1.068,-12.512,-10.742,-2.441
0.015,0.024,1.068,-11.902,-9.460,-4.639
-0.001,0.020,1.058,-11.475,-10.498,-3.662
-0.022,0.016,1.061,-11.902,-12.085,-4.517
-0.020,0.022,1.063,-10.925,-11.658,-4.028
-0.035,0.040,1.061,-10.559,-10.254,-4.395
-0.032,0.054,1.063,-9.399,-9.094,-3.784
-0.012,0.060,1.011,-7.568,-8.240,-3.113
-0.043,0.038,1.004,-10.010,-8.911,-3.540
-0.052,0.054,1.001,-10.559,-9.705,-2.319
-0.019,0.066,1.005,-10.437,-7.263,-0.610
-0.002,0.070,0.999,-11.963,-5.676,-1.221
-0.001,0.057,1.015,-12.512,-3.540,-2.136
0.001,0.058,1.022,-12.939,-4.578,-2.014
-0.012,0.047,1.008,-12.878,-7.019,-4.578
-0.033,0.055,0.997,-13.367,-7.751,-4.578
-0.043,0.052,1.003,-13.916,-9.583,-3.174
-0.043,0.065,1.009,-14.221,-10.803,-2.258
-0.045,0.067,1.011,-15.076,-10.254,-1.709
-0.035,0.063,1.006,-14.038,-11.414,-0.244
-0.010,0.076,1.014,-14.221,-11.475,0.671
0.006,0.070,1.022,-15.503,-10.010,0.122
0.010,0.064,1.020,-14.893,-9.277,0.549
0.006,0.051,1.024,-15.320,-9.460,-0.549
0.002,0.051,1.012,-16.052,-10.620,-0.793
0.003,0.058,1.024,-15.198,-9.827,-0.488
0.023,0.064,1.060,-16.663,-9.766,-0.610
0.018,0.062,1.064,-15.259,-9.155,-1.526
0.008,0.051,1.054,-14.221,-9.338,-1.404
0.011,0.050,1.037,-13.672,-11.292,-1.038
0.019,0.051,1.041,-13.855,-11.536,-1.099
0.020,0.048,1.049,-14.587,-10.315,-1.770
0.029,0.050,1.070,-13.672,-9.338,-1.282
0.023,0.050,1.064,-13.855,-10.132,-1.770
0.031,0.052,1.062,-13.245,-10.193,-2.014
0.017,0.046,1.049,-13.428,-10.071,-2.136
0.011,0.046,1.062,-13.245,-10.986,-0.671
0.017,0.048,1.071,-13.550,-10.437,-0.732
0.039,0.055,1.069,-13.245,-8.911,-0.793
0.026,0.056,1.078,-13.184,-8.972,-1.221
0.023,0.037,1.067,-12.024,-8.606,-1.343
0.025,0.046,1.071,-12.207,-8.484,-1.526
0.031,0.057,1.081,-12.817,-8.240,-1.160
0.038,0.059,1.076,-12.817,-7.080,-2.380
0.035,0.068,1.076,-11.536,-6.165,-2.075
0.045,0.061,1.072,-10.681,-6.226,-3.357
0.029,0.041,1.041,-10.559,-6.287,-2.930
0.017,0.046,1.044,-12.268,-7.324,-1.648
0.050,0.064,1.050,-11.963,-6.897,-1.587
0.056,0.063,1.048,-10.986,-5.005,-0.977
0.059,0.062,1.041,-11.475,-4.578,-1.892
0.065,0.060,1.043,-11.780,-3.662,-3.052
0.063,0.054,1.043,-11.597,-3.967,-3.723
0.052,0.046,1.025,-11.902,-3.662,-5.188
0.032,0.042,1.015,-12.451,-4.028,-5.554
0.029,0.050,1.022,-14.404,-4.517,-4.517
0.036,0.057,1.040,-14.343,-4.028,-4.700
0.039,0.062,1.044,-12.268,-3.296,-4.517
0.033,0.058,1.025,-14.038,-3.113,-5.432
0.036,0.060,1.021,-13.123,-3.235,-5.676
0.031,0.061,1.010,-13.062,-4.700,-4.333
0.028,0.056,1.028,-13.733,-4.639,-4.333
0.012,0.052,1.048,-13.855,-4.883,-5.005
-0.001,0.046,1.050,-13.733,-5.554,-4.883
0.003,0.055,1.032,-12.085,-6.226,-4.578
0.006,0.060,1.032,-12.329,-5.310,-4.456
0.014,0.059,1.039,-11.841,-4.150,-3.967
0.013,0.054,1.038,-13.123,-3.113,-3.845
0.025,0.069,1.015,-13.672,-5.066,-4.089
0.019,0.064,1.019,-14.160,-5.432,-5.249

-0.773,-1.142,-0.760,-264.160,-27.527,-235.901
-0.970,-1.260,-0.585,-283.020,-36.316,-229.187
-1.242,-1.467,-0.002,-310.059,-67.444,-210.937
-1.394,-1.564,0.427,-312.317,-88.684,-200.256
-1.548,-1.652,1.205,-300.659,-133.118,-175.415
-1.602,-1.637,1.508,-268.372,-170.715,-142.639
-1.695,-1.573,2.020,-245.605,-188.904,-124.939
-1.678,-1.528,2.170,-182.007,-218.872,-84.656
-1.657,-1.532,2.186,-148.376,-228.821,-63.293
-1.590,-1.440,2.202,-88.867,-248.474,-15.625
-1.493,-1.410,2.127,-57.983,-254.272,10.620
-1.172,-1.337,1.853,-4.456,-254.883,63.171
-0.904,-1.247,1.728,17.761,-253.418,89.905
-0.090,-1.232,1.552,71.716,-252.502,137.817
0.199,-1.059,1.341,84.351,-288.025,118.164
0.669,-0.978,1.098,106.750,-269.226,145.447
0.784,-0.938,1.028,100.159,-249.878,139.648
0.996,-0.931,0.968,85.693,-218.872,126.404
1.097,-0.898,1.068,77.881,-200.989,128.113
1.198,-0.826,1.371,71.106,-167.358,130.737
1.248,-0.703,1.492,76.965,-156.860,137.695
1.455,-0.563,1.812,93.506,-126.587,144.470
1.533,-0.545,1.866,104.431,-125.549,134.949
1.820,-0.442,1.624,113.586,-127.563,113.342
1.451,-0.412,1.972,83.557,-99.731,73.120
1.275,-0.398,1.849,115.112,-101.929,91.064
1.118,-0.348,1.879,119.019,-95.886,96.008
1.004,-0.224,1.918,122.681,-60.730,102.173
0.947,-0.151,1.982,123.413,-31.738,107.117
0.957,-0.192,1.993,139.343,17.090,118.347
1.146,-0.109,1.754,150.024,16.602,119.324
1.171,-0.068,1.720,149.902,29.846,117.554
1.165,-0.014,1.607,148.010,44.373,105.042
1.134,-0.010,1.513,152.161,45.776,97.839
0.967,-0.035,1.415,152.710,43.823,86.487
0.830,-0.032,1.416,150.146,48.706,81.604
0.625,-0.044,1.425,147.766,63.904,83.252
0.575,-0.051,1.404,149.902,73.853,86.609
0.543,-0.023,1.361,148.193,84.595,92.285
0.608,0.073,1.257,148.132,95.947,102.173
0.653,0.117,1.172,148.621,97.595,103.210
0.720,0.169,0.927,146.362,91.309,98.694
0.733,0.195,0.821,139.954,86.121,94.482
0.746,0.225,0.744,121.277,71.594,83.862
0.766,0.191,0.689,109.192,63.232,77.698
0.794,0.161,0.702,98.389,56.702,73.120
0.840,0.133,0.898,80.261,55.786,67.322
0.798,0.103,1.030,74.768,59.509,65.735
0.770,0.093,1.112,74.463,64.148,65.552
0.747,0.025,1.125,79.895,72.449,70.496
0.792,0.016,1.074,82.092,79.102,72.998
0.856,0.028,1.047,81.238,88.806,75.562
1.014,0.078,0.934,82.031,88.318,72.998
1.090,0.060,0.823,80.627,87.769,67.688
1.164,0.079,0.700,68.542,80.872,52.368
1.166,0.085,0.674,61.890,72.815,41.748
1.154,0.077,0.663,54.688,64.331,31.738
1.123,0.047,0.628,42.786,49.866,11.719
1.063,0.017,0.673,34.546,46.448,2.136
0.981,-0.039,0.660,31.067,44.250,-5.676
0.858,-0.135,0.618,25.574,51.208,-10.986
0.856,-0.146,0.653,23.315,62.866,-9.888
0.907,-0.123,0.695,20.813,89.600,-10.925
0.937,-0.135,0.670,22.278,101.440,-11.902
0.989,-0.087,0.659,23.499,113.220,-18.127
0.992,-0.061,0.652,23.499,111.877,-24.536
0.968,-0.053,0.642,24.841,108.337,-32.410
0.863,-0.038,0.611,27.527,93.323,-47.058
0.795,-0.033,0.586,28.748,86.243,-56.519
0.630,-0.047,0.461,31.616,71.289,-69.519
0.556,-0.037,0.393,31.189,60.852,-73.914
0.447,-0.025,0.316,25.085,48.889,-79.956
0.406,-0.001,0.304,21.851,44.067,-81.787
0.396,0.026,0.287,18.555,41.077,-84.351
0.392,0.079,0.271,12.695,39.490,-89.355
0.402,0.082,0.269,10.010,38.574,-93.018
0.396,0.087,0.232,0.183,38.757,-105.896
0.386,0.100,0.214,-3.357,34.912,-112.793
0.345,0.083,0.188,-9.705,21.912,-122.742
0.219,0.070,0.125,-15.747,15.381,-126.831
0.168,0.062,0.109,-20.874,11.658,-128.845
0.075,0.057,0.075,-35.095,6.470,-130.676
0.025,0.047,0.072,-41.870,4.944,-128.662
-0.004,0.087,0.105,-54.443,3.906,-124.512
-0.020,0.085,0.117,-58.044,4.822,-122.253
-0.073,0.052,0.141,-69.336,8.057,-123.230
-0.104,0.040,0.169,-75.012,7.385,-125.793
-0.147,0.017,0.232,-85.510,4.211,-130.127
-0.300,-0.052,0.359,-89.600,-1.343,-131.958
-0.343,-0.020,0.437,-93.628,-6.531,-132.812
-0.423,-0.016,0.674,-100.830,-7.935,-132.812
-0.465,-0.005,0.762,-98.145,-8.545,-131.714
-0.614,-0.106,0.846,-95.154,-11.902,-130.676
-0.713,-0.129,0.955,-90.332,-22.888,-119.263
-0.746,-0.134,1.020,-87.402,-27.527,-114.258
-0.851,-0.156,1.186,-81.482,-33.386,-104.980
-0.881,-0.159,1.317,-76.416,-34.729,-97.229
-0.918,-0.120,1.542,-68.420,-32.166,-82.214
-0.934,-0.108,1.576,-59.143,-33.203,-74.341
-0.897,-0.085,1.524,-41.382,-39.185,-56.641
-0.858,-0.074,1.504,-33.997,-39.856,-46.204
-0.788,-0.109,1.391,-26.123,-38.147,-29.175
-0.740,-0.109,1.333,-24.597,-37.903,-22.095
-0.612,-0.092,1.328,-28.625,-41.016,-7.996
-0.559,-0.092,1.365,-30.823,-41.870,-3.967
-0.472,-0.064,1.426,-30.579,-46.997,3.601
-0.431,-0.061,1.469,-31.250,-49.011,6.775
-0.324,-0.034,1.461,-23.865,-49.255,11.047
-0.274,-0.042,1.431,-20.081,-47.485,14.404
-0.184,-0.060,1.345,-13.123,-42.297,22.827
-0.113,-0.058,1.298,-10.559,-38.330,26.367
0.048,-0.063,1.214,-8.240,-28.687,32.166
0.123,-0.072,1.189,-7.812,-24.170,33.142
0.177,-0.089,1.164,-7.568,-18.433,33.386
0.294,-0.091,1.105,-10.132,-15.076,31.738
0.331,-0.097,1.099,-11.841,-15.442,29.236
0.377,-0.087,1.084,-13.611,-19.775,20.020
0.364,-0.078,1.133,-15.320,-19.348,14.465
0.283,-0.052,1.198,-15.442,-22.583,5.432

-0.527,-0.513,1.601,-47.119,-28.931,45.166
-0.543,-0.465,1.795,-47.424,-28.564,56.519
-0.594,-0.483,2.126,-42.664,-16.418,74.402
-0.605,-0.443,2.220,-34.058,-16.663,85.205
-0.538,-0.400,2.297,-16.418,-2.930,102.417
-0.305,-0.354,2.493,-10.132,5.981,109.070
-0.225,-0.327,2.562,0.732,9.338,115.417
-0.096,-0.404,2.683,26.306,22.461,125.305
-0.068,-0.462,2.703,39.490,32.227,134.888
0.109,-0.437,2.711,59.937,59.204,155.945
0.239,-0.363,2.705,65.857,68.298,165.344
0.308,-0.319,2.625,79.468,82.520,172.058
0.344,-0.293,2.484,88.745,83.130,176.819
0.382,-0.239,2.386,91.125,78.613,180.542
0.428,-0.069,2.188,94.116,69.702,190.308
0.443,0.010,2.076,94.971,65.857,193.115
0.503,0.058,1.853,94.788,63.232,199.036
0.631,0.027,1.686,96.436,60.059,201.294
0.812,-0.050,1.462,94.482,62.500,198.730
1.238,-0.246,1.183,87.097,64.453,193.665
1.491,-0.307,1.146,81.604,64.575,185.852
2.076,-0.475,1.090,82.031,55.359,162.720
2.363,-0.520,1.132,86.731,50.354,147.339
2.713,-0.682,1.102,105.652,23.437,99.976
2.812,-0.827,0.982,121.338,1.465,73.914
2.875,-1.015,0.770,135.254,-24.231,47.424
2.797,-1.179,0.417,143.555,-52.917,7.263
2.724,-1.196,0.370,139.221,-46.143,-8.240
2.630,-1.188,0.404,130.371,-8.057,-39.246
2.581,-1.146,0.435,128.967,15.686,-50.232
2.380,-1.016,0.298,136.108,46.875,-75.317
2.210,-0.925,0.164,137.207,58.472,-87.830
1.843,-0.696,-0.157,137.329,80.627,-109.192
1.660,-0.617,-0.339,136.414,85.388,-123.840
1.270,-0.499,-0.675,125.061,102.295,-150.757
1.131,-0.440,-0.768,115.540,114.014,-162.598
0.844,-0.394,-0.914,90.271,136.597,-183.899
0.733,-0.355,-0.931,76.538,145.508,-191.467
0.567,-0.269,-0.848,54.749,149.963,-202.637
0.489,-0.254,-0.793,46.570,146.606,-208.374
0.376,-0.259,-0.692,36.194,120.544,-217.712
0.315,-0.245,-0.654,31.616,102.173,-222.229
0.154,-0.268,-0.600,24.780,72.021,-231.750
0.028,-0.284,-0.561,18.860,63.232,-236.023
-0.202,-0.303,-0.504,9.888,45.776,-238.220
-0.318,-0.291,-0.448,2.197,39.246,-240.906
-0.577,-0.283,-0.369,-9.705,30.090,-234.924
-0.686,-0.233,-0.318,-14.343,30.457,-227.051
-0.725,-0.167,-0.306,-25.574,47.729,-213.745
-0.732,-0.158,-0.306,-31.189,55.176,-205.261
-0.670,-0.102,-0.288,-40.466,54.871,-188.232
-0.603,-0.104,-0.300,-44.495,54.260,-186.157
-0.631,-0.181,-0.168,-60.608,42.725,-187.439
-0.686,-0.225,-0.107,-68.787,28.809,-190.063
-0.873,-0.313,0.061,-81.909,-6.775,-193.970
-0.990,-0.334,0.157,-87.402,-25.452,-192.688
-1.295,-0.351,0.332,-97.473,-59.021,-179.626
-1.386,-0.315,0.400,-99.426,-75.195,-151.611
-1.427,-0.252,0.467,-101.868,-77.454,-132.568
-1.352,-0.303,0.440,-105.591,-66.589,-102.783
-1.343,-0.371,0.459,-111.816,-60.120,-91.309
-1.273,-0.429,0.637,-128.662,-74.524,-72.144
-1.209,-0.417,0.731,-130.615,-89.111,-63.843
-1.098,-0.374,0.891,-132.446,-118.164,-55.603
-1.053,-0.359,0.940,-129.761,-131.287,-51.758
-1.024,-0.355,0.898,-119.934,-158.997,-39.551
-0.998,-0.364,0.823,-115.540,-168.579,-33.325
-1.024,-0.549,0.771,-119.568,-169.189,-18.127
-1.026,-0.710,1.042,-132.629,-165.955,1.282
-1.045,-0.740,1.300,-135.681,-165.894,12.817
-0.979,-0.802,1.668,-123.901,-175.964,34.424
-0.887,-0.823,1.767,-112.488,-179.565,46.143
-0.681,-0.819,1.908,-84.045,-176.880,69.458
-0.546,-0.851,1.804,-65.186,-179.443,80.200
-0.227,-0.880,1.532,-40.283,-179.810,98.633
-0.057,-0.862,1.408,-33.569,-174.194,108.459
0.223,-0.840,1.264,-34.546,-151.672,116.394
0.288,-0.837,1.264,-41.565,-141.052,115.906
0.726,-0.814,1.240,-46.570,-144.043,117.065
0.468,-0.751,1.557,-61.401,-157.043,86.731
0.415,-0.726,1.608,-47.974,-161.865,109.680
0.375,-0.642,1.747,-50.781,-158.264,100.037
0.240,-0.595,1.928,-35.889,-145.386,108.704
0.217,-0.573,1.965,-29.541,-140.137,105.896
0.236,-0.545,1.948,-17.700,-109.802,114.197
0.279,-0.523,1.907,-13.916,-95.581,115.967
0.423,-0.500,1.862,-2.625,-73.120,117.920
0.535,-0.449,1.841,4.883,-72.754,121.155
0.726,-0.353,1.841,20.325,-74.341,117.249
0.736,-0.316,1.806,22.644,-71.716,111.511
0.779,-0.233,1.782,31.128,-66.589,100.769
0.751,-0.201,1.757,36.377,-64.819,97.351
0.737,-0.181,1.731,41.870,-61.218,94.543
0.649,-0.155,1.641,52.002,-50.842,91.003
0.647,-0.122,1.592,59.265,-47.729,91.919
0.545,-0.098,1.469,68.359,-32.776,94.971
0.551,-0.094,1.404,71.533,-22.705,94.360
0.652,-0.118,1.186,76.477,-10.071,97.656
0.715,-0.124,1.081,76.233,-3.601,96.680
0.812,-0.121,1.002,73.792,1.343,94.482
0.957,-0.100,0.900,68.970,5.676,86.914
1.028,-0.085,0.842,67.627,5.737,81.604
1.075,-0.061,0.796,61.218,6.958,65.613
1.108,-0.070,0.770,57.983,10.315,54.932
1.133,-0.076,0.740,56.213,10.437,47.607
1.100,-0.106,0.608,51.086,6.287,31.738
1.093,-0.110,0.545,50.049,6.897,26.306
1.095,-0.086,0.516,44.006,7.812,19.653
1.055,-0.086,0.476,32.837,9.338,3.967
1.023,-0.075,0.494,26.794,9.460,-5.249
0.874,-0.068,0.566,18.066,5.859,-21.851
0.799,-0.063,0.581,17.029,3.845,-28.564
0.736,-0.058,0.584,15.747,-0.122,-36.011
0.593,-0.060,0.562,13.611,-4.395,-42.664
0.512,-0.062,0.545,11.169,-6.042,-46.875
0.332,-0.078,0.549,5.859,-6.836,-47.974
0.280,-0.060,0.556,3.540,-5.432,-47.791
0.225,-0.062,0.582,-0.610,-2.747,-46.753
0.155,-0.075,0.630,-8.057,2.197,-42.786

0.552,-0.123,1.947,30.823,62.622,128.845
0.703,-0.134,1.975,37.659,60.486,129.028
0.849,-0.181,1.947,45.593,57.617,123.047
1.140,-0.273,1.901,60.364,52.551,110.352
1.296,-0.301,1.880,69.824,49.805,101.929
1.387,-0.532,1.834,89.478,45.715,82.642
1.406,-0.662,1.754,100.464,40.649,77.942
1.408,-0.829,1.645,124.146,40.161,80.688
1.601,-1.044,1.468,131.348,53.528,85.693
1.747,-1.135,1.456,136.047,72.021,89.539
2.146,-1.211,1.478,148.499,114.624,91.553
2.366,-1.181,1.465,159.912,129.211,85.999
2.637,-1.113,1.287,187.622,134.155,53.955
2.648,-1.053,1.073,201.538,122.864,31.555
2.515,-0.948,0.572,221.130,85.205,-18.311
2.358,-0.863,0.265,226.257,67.993,-45.471
2.120,-0.794,0.043,223.145,53.650,-72.876
1.643,-0.588,-0.335,208.130,35.400,-119.385
1.441,-0.537,-0.459,193.604,34.790,-140.869
1.117,-0.439,-0.622,166.870,43.823,-170.715
0.992,-0.390,-0.657,154.968,53.223,-180.786
0.783,-0.358,-0.720,131.531,71.472,-199.890
0.681,-0.344,-0.781,119.934,76.965,-205.200
0.534,-0.295,-0.854,93.689,71.045,-211.060
0.483,-0.257,-0.867,81.116,66.223,-216.431
0.324,-0.267,-0.889,55.237,58.838,-228.943
0.257,-0.261,-0.910,41.199,48.401,-233.582
0.057,-0.247,-0.936,15.625,22.217,-241.882
-0.061,-0.236,-0.923,2.747,6.897,-245.789
-0.277,-0.210,-0.876,-22.705,-21.729,-247.742
-0.359,-0.160,-0.821,-35.461,-31.616,-246.948
-0.498,-0.122,-0.709,-57.251,-37.659,-241.577
-0.559,-0.122,-0.693,-77.332,-31.860,-236.084
-0.692,-0.187,-0.699,-89.233,-27.893,-231.873
-0.805,-0.255,-0.609,-116.516,-27.161,-222.046
-0.855,-0.292,-0.533,-127.380,-34.302,-217.041
-0.880,-0.327,-0.312,-148.315,-56.213,-205.872
-0.920,-0.353,-0.237,-153.748,-71.228,-201.172
-0.989,-0.396,-0.028,-165.161,-102.112,-191.223
-1.154,-0.472,0.160,-171.143,-130.310,-179.382
-1.281,-0.524,0.234,-171.997,-142.883,-170.715
-1.515,-0.689,0.476,-177.490,-165.771,-142.517
-1.569,-0.708,0.622,-177.979,-175.659,-124.268
-1.514,-0.683,1.070,-174.927,-183.960,-86.121
-1.365,-0.666,1.250,-153.625,-189.026,-48.889
-1.254,-0.643,1.267,-143.494,-192.871,-31.616
-1.011,-0.694,1.223,-115.295,-197.632,-2.686
-0.959,-0.776,1.247,-106.567,-193.054,8.484
-0.851,-0.949,1.283,-92.041,-198.120,29.968
-0.797,-1.050,1.311,-88.684,-202.454,40.955
-0.584,-1.175,1.452,-81.421,-208.191,66.589
-0.404,-1.164,1.600,-79.651,-207.275,81.970
-0.015,-1.132,1.742,-64.941,-200.256,104.065
0.203,-1.064,1.786,-57.495,-197.449,115.723
0.745,-0.866,1.955,-43.701,-177.124,126.770
0.866,-0.794,2.129,-29.297,-169.739,120.483
1.047,-0.818,2.070,-23.560,-178.223,89.844
1.157,-0.778,1.933,-5.188,-181.519,103.943
0.813,-0.818,2.064,-13.123,-157.166,87.891
0.701,-0.810,2.068,-1.343,-150.391,97.656
0.467,-0.766,2.220,-2.075,-112.671,112.244
0.475,-0.722,2.313,2.380,-88.074,119.324
0.620,-0.645,2.228,15.198,-45.227,128.845
0.729,-0.601,2.163,23.254,-29.907,127.869
0.878,-0.495,1.924,34.546,-20.691,121.826
0.923,-0.422,1.820,37.903,-21.484,117.065
0.922,-0.377,1.725,40.710,-24.475,110.718
0.857,-0.312,1.589,45.349,-31.555,98.633
0.784,-0.300,1.564,45.593,-32.654,94.482
0.625,-0.307,1.576,44.617,-27.527,88.562
0.522,-0.320,1.598,45.227,-22.156,89.661
0.380,-0.333,1.604,54.810,-10.071,100.159
0.377,-0.305,1.594,62.134,-1.221,106.262
0.434,-0.293,1.553,78.064,11.292,118.958
0.587,-0.240,1.357,82.336,18.860,120.728
0.661,-0.205,1.246,84.778,21.606,120.972
0.859,-0.174,1.059,87.769,21.362,118.591
0.763,-0.057,0.923,83.679,21.057,111.633
1.001,-0.007,0.826,82.825,13.306,105.530
0.997,0.003,0.815,73.975,15.991,95.764
1.010,0.016,0.810,68.054,15.564,89.294
0.979,-0.028,0.797,56.885,20.203,73.608
0.985,-0.022,0.835,52.979,19.287,67.139
0.949,-0.065,0.903,43.884,23.071,58.960
0.947,-0.033,0.951,42.114,27.710,55.359
0.962,-0.047,0.983,42.969,29.541,52.063
0.995,-0.036,0.958,49.072,34.241,42.053
1.005,-0.048,0.895,52.429,36.804,36.255
1.000,-0.061,0.721,56.824,37.292,25.696
1.005,-0.062,0.652,56.274,35.217,20.691
1.002,-0.055,0.597,54.443,35.217,13.855
0.946,-0.056,0.528,46.509,31.677,0.427
0.916,-0.055,0.511,42.297,28.687,-6.531
0.872,-0.039,0.517,35.034,20.325,-17.761
0.775,-0.030,0.518,32.715,13.245,-24.048
0.719,-0.023,0.511,29.785,7.874,-31.067
0.587,-0.023,0.474,22.949,-1.953,-38.391
0.531,-0.010,0.464,19.348,-4.883,-41.382
0.429,0.020,0.513,9.827,-3.906,-42.053
0.380,0.033,0.534,6.287,-4.028,-42.419
0.336,0.032,0.552,4.028,-2.502,-41.626
0.262,0.046,0.559,0.061,4.761,-40.710
0.231,0.051,0.570,-3.418,10.315,-39.063
0.213,0.039,0.580,-9.033,17.029,-36.621
0.203,0.032,0.567,-12.390,17.151,-36.133
0.192,0.022,0.583,-16.602,17.395,-37.048
0.148,0.001,0.649,-21.545,11.292,-38.452
0.135,0.005,0.686,-23.315,5.859,-37.170
0.121,0.003,0.718,-25.513,-5.432,-40.527
0.124,-0.001,0.739,-25.757,-8.667,-39.734
0.131,-0.001,0.773,-26.428,-15.076,-40.161
0.102,-0.017,0.829,-25.024,-18.127,-39.490
0.095,-0.013,0.834,-23.865,-20.142,-37.903
0.099,-0.015,0.843,-23.010,-23.254,-34.851
0.096,-0.012,0.850,-24.475,-23.804,-31.982
0.094,-0.019,0.861,-24.292,-20.752,-26.550
0.102,-0.022,0.865,-25.879,-18.311,-23.254
0.134,-0.028,0.876,-29.175,-15.137,-18.738
0.147,-0.023,0.895,-30.579,-13.855,-16.907

0.634,0.299,1.644,-14.709,20.691,20.203
0.704,0.285,1.762,-12.207,28.687,18.982
0.804,0.299,1.861,-6.714,30.762,16.602
0.958,0.250,2.023,18.433,48.096,7.629
1.022,0.078,1.947,35.278,62.195,3.357
1.084,-0.090,1.751,51.392,66.162,1.953
1.304,-0.164,1.314,71.594,59.692,8.362
1.404,-0.204,1.160,73.792,60.486,5.981
1.605,-0.230,1.038,68.542,75.256,-3.174
1.681,-0.261,1.065,65.735,78.491,-10.681
1.759,-0.266,1.090,64.880,77.148,-19.531
1.801,-0.308,1.022,74.036,74.768,-40.771
1.770,-0.343,1.000,76.599,71.655,-53.833
1.751,-0.286,0.912,85.022,70.129,-80.444
1.706,-0.292,0.850,90.027,74.585,-98.450
1.543,-0.294,0.646,95.825,79.834,-129.333
1.500,-0.278,0.479,98.755,80.017,-142.517
1.460,-0.265,0.349,98.083,85.449,-155.090
1.365,-0.347,-0.003,98.328,94.055,-182.251
1.323,-0.388,-0.184,92.407,92.346,-196.350
1.157,-0.463,-0.543,75.012,77.759,-224.365
1.021,-0.568,-0.661,61.096,76.111,-237.183
0.946,-0.532,-0.894,32.715,79.956,-256.409
0.852,-0.572,-0.983,17.334,88.867,-268.555
0.620,-0.668,-1.291,-5.249,88.013,-285.339
0.486,-0.700,-1.498,-19.470,84.473,-292.847
0.210,-0.732,-1.738,-58.533,76.721,-293.579
0.024,-0.746,-1.721,-80.017,71.106,-295.471
-0.369,-0.833,-1.527,-123.901,57.922,-294.861
-0.602,-0.903,-1.360,-142.395,48.523,-294.800
-1.284,-1.126,-0.877,-175.598,14.771,-296.448
-1.669,-1.220,-0.563,-191.956,-48.828,-278.564
-2.283,-1.228,0.125,-193.665,-78.430,-260.315
-2.495,-1.123,0.735,-186.829,-107.666,-212.585
-2.577,-1.046,1.011,-177.429,-114.258,-184.998
-2.557,-0.823,1.198,-142.517,-137.329,-126.587
-2.436,-0.684,1.132,-122.498,-148.560,-95.398
-2.144,-0.633,0.806,-83.618,-163.269,-40.710
-2.039,-0.657,0.718,-80.994,-172.241,-2.319
-1.899,-0.746,0.855,-84.045,-184.814,17.761
-1.681,-0.730,1.103,-81.787,-205.872,53.894
-1.609,-0.738,1.204,-77.576,-207.031,73.425
-1.354,-0.857,1.206,-61.035,-203.186,108.948
-1.163,-0.927,1.177,-54.932,-201.111,126.221
-0.708,-1.117,1.126,-45.044,-201.477,155.823
-0.463,-1.245,1.058,-43.091,-201.416,165.161
0.083,-1.375,1.216,-53.223,-194.824,177.368
0.306,-1.423,1.482,-61.218,-193.848,179.565
0.587,-1.352,2.044,-55.237,-205.933,176.392
0.851,-1.563,2.247,-28.320,-220.581,179.810
0.821,-1.167,2.241,-4.028,-246.155,176.453
0.871,-1.134,2.332,4.517,-223.633,175.598
0.928,-1.037,2.082,16.357,-175.049,168.518
1.060,-0.971,2.023,20.081,-158.752,173.828
1.271,-0.740,2.101,26.794,-132.324,171.082
1.286,-0.627,2.068,28.076,-118.713,158.142
1.102,-0.540,2.092,19.409,-89.111,132.446
1.070,-0.466,2.075,23.254,-80.261,127.991
1.083,-0.391,2.090,26.489,-72.144,123.108
0.982,-0.284,2.169,37.598,-57.556,117.065
0.924,-0.255,2.226,41.992,-46.936,112.366
0.889,-0.218,2.198,60.242,-33.203,110.596
0.832,-0.208,2.169,72.754,-26.672,111.023
0.782,-0.168,2.044,96.130,-16.357,115.173
0.790,-0.135,1.942,103.333,-10.376,113.281
0.855,-0.104,1.698,127.441,-6.470,117.310
0.786,-0.090,1.645,128.662,-1.404,112.244
0.832,-0.037,1.404,136.719,-2.258,108.337
0.860,-0.019,1.314,138.306,0.854,104.248
0.913,-0.027,1.215,139.648,4.944,100.037
1.036,-0.023,0.981,138.306,16.541,94.055
1.085,-0.023,0.897,134.277,21.423,88.989
1.159,-0.016,0.801,123.352,25.085,80.261
1.208,-0.008,0.765,118.530,24.780,74.707
1.254,0.021,0.722,107.849,28.809,59.998
1.253,0.023,0.695,102.173,31.494,50.110
1.235,0.014,0.694,96.130,33.752,42.114
1.199,0.030,0.766,87.097,28.748,30.640
1.151,0.046,0.805,85.815,26.001,23.071
1.090,0.010,0.817,86.487,24.780,14.709
1.000,-0.037,0.689,90.088,17.639,1.953
0.975,-0.051,0.640,88.196,19.897,-2.991
0.915,-0.057,0.654,80.139,24.902,-9.277
0.897,-0.063,0.641,80.078,23.926,-13.306
0.897,-0.067,0.606,78.918,25.635,-15.991
0.868,-0.077,0.497,72.754,30.518,-23.071
0.832,-0.075,0.472,68.359,33.691,-26.184
0.774,-0.076,0.425,57.617,36.865,-33.142
0.729,-0.074,0.413,51.941,36.499,-38.879
0.596,-0.081,0.377,41.687,31.067,-46.814
0.524,-0.063,0.379,34.180,28.992,-50.110
0.457,-0.051,0.388,30.273,28.137,-52.429
0.319,-0.023,0.408,20.203,26.245,-52.612
0.253,0.008,0.400,18.494,26.611,-52.856
0.164,0.050,0.395,12.939,28.564,-49.438
0.140,0.077,0.387,10.376,30.640,-45.410
0.128,0.085,0.366,8.301,33.447,-42.236
0.101,0.112,0.342,2.014,34.729,-40.405
0.095,0.125,0.354,-3.418,33.020,-40.771
0.080,0.157,0.420,-11.963,29.297,-41.748
0.060,0.175,0.465,-16.052,26.245,-41.931
0.047,0.188,0.513,-20.020,21.179,-44.006
-0.008,0.203,0.604,-24.414,8.179,-45.715
-0.045,0.191,0.641,-25.879,4.028,-45.532
-0.134,0.171,0.684,-27.771,-1.282,-43.945
-0.169,0.162,0.722,-30.701,-2.686,-41.809
-0.213,0.152,0.791,-31.006,-3.784,-32.837
-0.222,0.153,0.813,-28.809,-5.005,-28.442
-0.186,0.158,0.855,-29.236,-4.578,-17.944
-0.146,0.165,0.889,-27.954,-3.113,-12.634
-0.103,0.176,0.903,-24.292,-2.808,-6.531
-0.013,0.180,0.885,-23.560,-4.761,-6.714
0.013,0.174,0.868,-23.132,-7.629,-5.798
0.045,0.171,0.846,-25.696,-15.320,-4.822
0.063,0.193,0.845,-26.306,-18.860,-3.967
0.093,0.211,0.867,-30.579,-19.592,-3.052
0.099,0.217,0.889,-32.959,-19.775,-3.235
0.112,0.211,0.911,-37.598,-17.944,-3.418
0.125,0.189,0.939,-40.466,-18.005,-2.686

0.714,0.212,1.579,3.113,20.874,37.903
0.763,0.190,1.614,4.944,24.231,36.438
0.809,0.167,1.644,9.094,26.062,33.875
0.847,0.042,1.659,18.372,28.320,26.611
0.858,-0.012,1.600,27.466,26.428,23.315
0.892,-0.062,1.589,34.119,24.414,20.996
0.979,-0.201,1.531,50.110,29.968,18.616
1.016,-0.223,1.469,57.007,35.583,17.517
1.123,-0.260,1.353,71.228,44.006,17.090
1.200,-0.260,1.299,76.355,50.720,15.198
1.266,-0.283,1.195,84.778,57.495,10.864
1.356,-0.269,1.015,91.370,65.247,-1.526
1.375,-0.305,0.941,95.337,70.007,-9.766
1.387,-0.326,0.731,98.511,75.500,-31.921
1.329,-0.343,0.700,95.825,76.172,-42.175
1.285,-0.309,0.675,94.299,73.181,-52.551
1.143,-0.260,0.616,96.741,68.054,-70.435
1.060,-0.238,0.573,98.694,65.002,-78.796
0.910,-0.177,0.446,101.440,64.880,-94.177
0.841,-0.161,0.370,102.478,66.162,-99.915
0.686,-0.177,0.117,100.281,66.467,-106.628
0.643,-0.175,-0.007,94.421,61.218,-107.910
0.630,-0.116,-0.183,78.125,49.805,-108.337
0.637,-0.087,-0.228,69.641,43.884,-111.755
0.583,-0.115,-0.312,51.880,41.199,-125.305
0.585,-0.101,-0.297,39.795,39.490,-131.653
0.585,-0.066,-0.279,21.057,41.260,-147.827
0.548,-0.104,-0.321,13.062,42.114,-157.837
0.511,-0.097,-0.333,2.075,42.419,-179.565
0.412,-0.215,-0.468,-3.357,36.499,-185.059
0.392,-0.246,-0.535,-13.489,29.724,-191.223
0.342,-0.353,-0.673,-30.334,18.799,-202.271
0.315,-0.472,-0.760,-38.940,13.855,-208.130
0.273,-0.555,-1.011,-53.955,0.854,-212.891
0.189,-0.622,-1.036,-75.745,0.732,-220.581
0.060,-0.666,-1.025,-106.995,-17.395,-225.281
-0.037,-0.658,-0.986,-141.663,-37.292,-228.943
-0.164,-0.667,-0.789,-159.668,-44.739,-231.445
-0.365,-0.710,-0.476,-188.721,-64.392,-238.647
-0.470,-0.758,-0.261,-200.928,-82.275,-241.455
-0.820,-0.754,0.333,-215.454,-115.051,-241.516
-1.021,-0.755,0.607,-214.355,-124.756,-238.037
-1.400,-0.833,0.981,-209.045,-143.555,-219.849
-1.604,-0.757,1.180,-199.646,-170.105,-177.246
-1.609,-0.638,1.211,-191.223,-183.960,-153.320
-1.581,-0.681,1.239,-177.856,-185.486,-112.976
-1.593,-0.782,1.335,-176.208,-181.885,-95.398
-1.646,-0.920,1.826,-176.147,-194.031,-59.998
-1.775,-1.067,2.419,-157.715,-215.393,-28.381
-1.818,-1.067,2.592,-133.789,-231.689,-6.714
-1.681,-1.016,2.610,-77.515,-260.559,46.387
-1.534,-0.956,2.436,-49.011,-266.296,74.768
-0.993,-0.934,2.013,-12.939,-255.249,128.784
-0.599,-0.924,1.833,-3.723,-238.342,149.536
0.428,-1.035,1.644,10.010,-208.618,188.843
0.555,-1.132,1.597,5.310,-234.375,161.133
1.014,-1.091,1.631,-3.784,-207.642,183.105
1.135,-1.053,1.915,-26.245,-171.143,178.772
1.175,-1.073,2.197,-28.320,-147.095,155.884
1.153,-0.979,2.307,-16.846,-135.559,170.532
1.101,-0.892,2.419,24.719,-112.183,185.669
1.162,-0.865,2.360,42.908,-96.313,187.561
1.416,-0.712,2.220,55.115,-75.500,161.926
1.496,-0.663,2.154,56.519,-65.674,148.499
1.507,-0.608,2.076,60.425,-58.167,135.925
1.333,-0.520,1.895,64.026,-46.143,117.004
1.231,-0.433,1.922,70.007,-45.715,107.666
1.112,-0.307,1.704,92.407,-57.373,108.643
1.053,-0.234,1.639,98.877,-50.171,108.032
0.839,-0.146,1.501,100.952,-27.649,90.088
0.790,-0.151,1.598,109.131,-10.803,95.520
0.770,-0.098,1.369,120.972,-5.615,100.830
0.763,-0.038,1.287,120.361,5.127,98.999
0.693,-0.037,1.274,114.807,20.874,95.215
0.695,0.050,1.201,118.103,28.320,95.886
0.719,0.102,1.175,117.004,29.541,94.238
0.732,0.117,1.030,113.770,34.790,87.830
0.760,0.112,0.934,112.061,36.560,85.144
0.798,0.124,0.847,110.596,35.156,83.618
0.837,0.142,0.738,99.915,30.273,79.590
0.820,0.106,0.711,93.384,30.396,75.867
0.899,0.089,0.781,81.787,40.894,71.594
0.923,0.068,0.852,78.064,47.241,70.923
0.956,0.031,0.864,78.613,52.368,68.176
1.019,-0.044,0.797,79.285,56.091,61.584
1.066,-0.047,0.756,79.468,53.528,60.791
1.083,-0.054,0.691,78.491,44.312,51.880
1.134,-0.069,0.545,75.195,39.917,45.959
1.136,-0.082,0.491,72.083,36.072,38.757
1.115,-0.126,0.418,59.875,28.931,22.034
1.096,-0.108,0.404,53.284,24.231,14.709
1.081,-0.091,0.400,42.847,13.000,-0.122
1.018,-0.087,0.359,38.147,8.789,-8.667
0.961,-0.090,0.313,31.982,5.920,-16.846
0.828,-0.074,0.325,19.714,2.747,-27.344
0.777,-0.056,0.380,14.954,6.348,-30.823
0.736,-0.038,0.411,11.108,8.972,-34.119
0.642,-0.030,0.386,8.667,17.944,-40.161
0.572,-0.036,0.378,5.371,21.973,-40.527
0.476,-0.007,0.404,-1.160,27.527,-41.748
0.440,0.021,0.434,-4.639,28.992,-42.847
0.404,0.028,0.457,-10.010,32.776,-44.495
0.342,0.038,0.508,-12.695,34.485,-45.898
0.310,0.048,0.556,-17.761,34.241,-48.462
0.229,0.047,0.652,-21.545,29.724,-50.232
0.172,0.042,0.689,-21.729,27.405,-50.110
0.086,0.045,0.741,-22.705,19.714,-48.828
0.046,0.052,0.766,-23.193,16.541,-48.523
0.001,0.042,0.800,-24.414,14.404,-43.213
-0.056,0.050,0.867,-24.780,13.062,-39.185
-0.050,0.059,0.931,-25.024,10.681,-35.095
-0.004,0.091,1.020,-20.447,11.414,-28.992
0.025,0.090,1.024,-15.991,11.902,-25.635
0.060,0.055,0.971,-10.254,9.399,-21.729
0.073,0.051,0.916,-8.606,5.188,-19.165
0.098,0.032,0.862,-12.451,-0.122,-14.648
0.142,0.049,0.860,-15.503,-1.465,-13.062
0.164,0.047,0.887,-18.921,-1.831,-12.695
0.188,0.058,0.958,-20.630,-5.249,-11.902

0.436,0.319,1.816,21.057,8.728,23.254
0.528,0.346,1.850,25.574,16.663,26.123
0.622,0.296,1.958,30.762,25.452,28.259
0.945,0.241,2.061,59.265,36.926,29.358
1.112,0.152,2.111,75.806,45.959,25.696
1.286,0.039,2.076,99.365,55.237,21.729
1.677,-0.190,1.867,138.489,72.815,12.390
1.833,-0.354,1.715,155.579,87.280,3.479
2.198,-0.554,1.346,174.866,114.258,-14.526
2.366,-0.551,1.215,177.734,120.483,-27.588
2.417,-0.517,0.923,186.523,108.643,-60.425
2.334,-0.488,0.706,190.430,96.985,-81.116
2.168,-0.477,0.452,185.059,69.031,-125.061
1.713,-0.360,0.086,177.002,55.237,-142.456
1.465,-0.299,-0.035,166.382,46.753,-159.668
1.080,-0.246,-0.309,144.348,49.377,-189.209
0.892,-0.286,-0.443,131.348,59.265,-197.510
0.633,-0.273,-0.685,94.849,71.655,-205.933
0.517,-0.243,-0.727,71.350,78.857,-208.557
0.358,-0.198,-0.772,29.968,94.238,-211.121
0.295,-0.183,-0.772,11.963,101.746,-212.769
0.227,-0.192,-0.792,-21.301,113.159,-214.600
0.186,-0.223,-0.795,-37.354,116.638,-216.248
-0.028,-0.312,-0.797,-64.941,113.342,-223.389
-0.372,-0.462,-0.702,-98.328,89.661,-227.783
-0.583,-0.500,-0.577,-113.098,70.190,-225.159
-0.964,-0.553,-0.417,-133.240,33.936,-213.928
-1.100,-0.565,-0.320,-144.287,20.325,-203.369
-1.185,-0.481,-0.120,-162.292,3.723,-178.650
-1.141,-0.421,-0.037,-165.039,-4.089,-165.039
-1.049,-0.336,0.091,-167.664,-13.062,-146.545
-0.967,-0.283,0.135,-168.030,-17.883,-137.817
-0.836,-0.244,0.208,-164.185,-22.156,-130.676
-0.916,-0.352,0.151,-164.001,-37.903,-132.202
-0.975,-0.391,0.196,-167.542,-54.321,-130.615
-1.083,-0.431,0.332,-170.288,-95.337,-121.033
-1.131,-0.442,0.397,-170.410,-117.676,-114.014
-1.067,-0.364,0.604,-166.199,-144.836,-93.323
-1.034,-0.328,0.670,-160.706,-151.611,-84.656
-0.937,-0.259,0.832,-148.804,-151.733,-65.369
-0.838,-0.341,0.820,-125.732,-150.879,-50.537
-0.848,-0.417,0.744,-117.554,-148.254,-47.058
-0.963,-0.635,0.695,-115.662,-161.011,-37.903
-0.982,-0.696,0.791,-118.896,-171.326,-28.442
-0.895,-0.718,1.109,-124.939,-186.523,-4.822
-0.808,-0.688,1.288,-120.850,-189.941,6.714
-0.614,-0.643,1.525,-105.713,-188.721,24.292
-0.534,-0.648,1.546,-93.933,-190.247,31.738
-0.356,-0.652,1.482,-68.481,-191.162,52.246
-0.239,-0.694,1.412,-57.556,-185.852,62.134
-0.022,-0.877,1.280,-46.631,-165.039,76.965
0.053,-0.942,1.355,-51.392,-151.001,84.717
0.113,-0.969,1.684,-60.242,-142.090,90.332
0.436,-1.087,1.775,-42.114,-153.931,98.267
0.306,-0.843,1.922,-22.705,-189.331,97.229
0.299,-0.792,1.985,-14.771,-173.889,106.079
0.227,-0.688,1.884,-3.723,-155.334,96.680
0.206,-0.640,1.885,6.409,-136.658,114.197
0.330,-0.508,1.852,16.968,-119.934,125.549
0.379,-0.456,1.870,11.963,-101.685,125.916
0.417,-0.438,1.922,-2.563,-67.993,107.361
0.378,-0.463,1.971,-1.648,-54.810,102.417
0.378,-0.531,2.051,4.761,-53.711,106.628
0.424,-0.451,2.110,5.066,-56.641,109.131
0.422,-0.382,2.227,13.977,-55.542,109.802
0.428,-0.335,2.227,26.245,-55.481,110.352
0.411,-0.308,2.174,35.645,-55.420,110.718
0.384,-0.243,2.063,52.002,-46.143,114.868
0.392,-0.218,1.979,60.242,-41.199,117.310
0.370,-0.223,1.808,73.303,-28.625,117.554
0.413,-0.252,1.702,82.336,-26.733,120.361
0.550,-0.274,1.506,88.501,-16.418,122.192
0.626,-0.274,1.433,90.637,-13.611,120.789
0.785,-0.334,1.296,92.102,-11.658,115.540
0.884,-0.335,1.262,92.773,-13.733,112.183
0.977,-0.326,1.251,94.604,-16.357,110.596
0.956,-0.322,1.213,92.468,-9.216,96.802
1.009,-0.332,1.146,88.135,-0.854,85.815
1.059,-0.384,1.093,96.191,2.502,90.027
1.047,-0.367,1.100,92.957,5.127,88.196
1.030,-0.348,1.122,89.294,8.972,81.116
1.017,-0.372,1.044,90.149,18.372,72.876
1.001,-0.364,1.029,87.646,21.606,67.749
0.999,-0.342,0.984,85.571,23.865,59.204
0.998,-0.314,0.974,83.862,23.804,54.199
1.002,-0.285,0.954,83.252,23.682,48.706
0.950,-0.286,0.865,83.496,24.963,33.325
0.916,-0.272,0.825,81.482,23.254,24.780
0.857,-0.177,0.775,77.148,18.677,15.259
0.849,-0.141,0.758,75.134,17.090,10.437
0.811,-0.135,0.764,72.083,17.517,5.554
0.721,-0.108,0.802,66.406,21.851,-3.357
0.667,-0.117,0.830,65.552,21.301,-7.751
0.558,-0.146,0.813,64.880,14.893,-10.315
0.536,-0.128,0.792,64.575,14.648,-8.728
0.499,-0.101,0.767,64.148,15.991,-8.484
0.416,-0.074,0.714,58.838,20.203,-7.446
0.412,-0.032,0.699,56.030,23.926,-6.409
0.451,0.059,0.705,49.072,34.485,-6.531
0.483,0.089,0.713,44.922,42.236,-9.033
0.514,0.103,0.734,40.955,50.537,-12.390
0.545,0.122,0.762,35.461,58.044,-18.494
0.558,0.122,0.755,36.255,60.791,-23.193
0.546,0.104,0.687,36.560,62.439,-33.203
0.520,0.087,0.636,35.828,62.012,-37.842
0.479,0.060,0.589,34.912,58.899,-42.847
0.393,0.042,0.503,28.809,48.584,-49.072
0.352,0.034,0.478,25.146,44.739,-52.063
0.266,0.015,0.410,16.968,34.363,-58.289
0.219,0.009,0.389,12.207,28.870,-58.167
0.187,0.017,0.392,6.531,20.447,-59.448
0.083,0.056,0.402,-2.808,9.216,-58.228
0.056,0.078,0.409,-5.798,6.531,-56.763
0.018,0.096,0.423,-11.536,6.958,-56.885
-0.079,0.106,0.515,-17.883,11.536,-55.969
-0.103,0.113,0.551,-19.714,11.292,-53.833
-0.128,0.134,0.591,-22.034,13.062,-49.194
-0.158,0.138,0.633,-22.217,15.076,-47.241
-0.135,0.183,0.635,-20.935,11.536,-41.382

0.463,0.301,1.785,-12.573,8.362,-10.010
0.421,0.239,1.819,-3.418,11.292,-12.451
0.398,0.189,1.796,6.775,11.414,-14.526
0.396,0.154,1.665,26.062,7.019,-13.000
0.442,0.130,1.590,33.020,8.301,-12.024
0.515,0.116,1.494,39.978,15.686,-9.766
0.677,0.138,1.369,39.795,18.494,-9.766
0.776,0.154,1.367,39.673,19.348,-11.169
1.021,0.212,1.475,42.847,22.095,-17.029
1.111,0.179,1.446,50.110,23.315,-25.269
1.148,0.135,1.352,55.969,22.461,-36.316
1.212,0.086,1.103,68.787,20.752,-52.368
1.248,0.063,0.991,70.679,20.813,-59.998
1.357,0.018,0.800,72.388,30.579,-69.946
1.465,0.039,0.712,71.838,29.419,-75.195
1.525,0.036,0.595,69.458,30.457,-85.632
1.527,0.013,0.249,58.594,42.419,-117.126
1.473,-0.026,0.085,47.363,47.058,-130.981
1.284,-0.073,-0.146,21.606,47.058,-156.250
1.128,-0.099,-0.189,5.676,44.495,-169.250
0.776,-0.203,-0.212,-18.372,36.987,-188.049
0.581,-0.210,-0.173,-26.733,35.400,-193.787
0.234,-0.297,-0.209,-33.569,32.471,-200.012
0.101,-0.344,-0.278,-39.490,36.072,-198.242
-0.081,-0.349,-0.342,-55.847,53.711,-183.411
-0.110,-0.320,-0.361,-63.354,66.895,-174.500
-0.082,-0.279,-0.405,-77.515,88.623,-156.921
-0.051,-0.265,-0.443,-84.290,99.854,-153.076
-0.054,-0.394,-0.640,-98.450,109.924,-154.541
-0.104,-0.426,-0.681,-111.206,101.074,-157.410
-0.264,-0.517,-0.520,-132.385,72.632,-168.579
-0.747,-0.725,-0.224,-147.522,38.635,-184.021
-1.014,-0.814,-0.075,-153.442,15.137,-184.082
-1.371,-0.818,0.342,-157.593,-34.851,-167.358
-1.483,-0.742,0.564,-152.954,-52.917,-153.320
-1.585,-0.656,0.763,-137.695,-76.050,-120.544
-1.566,-0.585,0.765,-130.005,-77.393,-102.783
-1.410,-0.456,0.677,-111.572,-89.355,-68.237
-1.305,-0.448,0.559,-95.276,-108.215,-43.518
-1.150,-0.425,0.286,-95.154,-118.103,-35.889
-1.264,-0.556,0.435,-113.342,-129.333,-26.367
-1.334,-0.634,0.565,-123.413,-138.977,-22.095
-1.532,-0.801,0.887,-134.033,-164.062,-6.775
-1.655,-0.867,1.082,-133.484,-182.007,6.104
-1.714,-0.976,1.291,-120.361,-203.857,44.617
-1.645,-1.030,1.332,-112.976,-205.322,65.979
-1.279,-1.116,1.546,-93.445,-196.594,108.154
-1.071,-1.123,1.654,-83.801,-191.895,121.277
-0.676,-1.153,1.780,-62.500,-190.063,139.587
-0.519,-1.188,1.781,-51.331,-195.679,144.470
0.211,-1.250,1.664,-23.010,-204.468,169.495
-0.119,-1.386,1.908,-22.583,-225.464,138.306
0.096,-1.371,2.098,-19.226,-199.036,182.678
0.224,-1.364,2.306,-22.888,-157.654,178.528
0.442,-1.318,2.584,-14.343,-146.606,197.876
0.589,-1.275,2.814,23.743,-138.611,209.961
0.880,-1.119,2.720,45.227,-131.287,219.360
1.031,-1.031,2.623,49.377,-122.192,202.698
1.186,-0.914,2.442,55.664,-91.736,184.570
1.233,-0.810,2.383,60.486,-81.604,172.974
1.366,-0.690,2.217,70.435,-61.279,161.194
1.363,-0.582,2.240,78.186,-61.218,159.119
1.352,-0.428,2.202,94.910,-59.204,146.667
1.310,-0.359,2.163,105.530,-56.641,141.235
1.173,-0.270,2.098,117.188,-42.603,126.770
1.133,-0.231,2.030,127.014,-35.278,121.582
1.035,-0.170,1.936,136.169,-13.550,115.479
1.005,-0.126,1.887,141.724,-4.150,112.793
1.025,-0.082,1.733,155.151,12.939,107.483
1.058,-0.088,1.646,158.875,20.325,104.370
1.119,-0.075,1.520,162.964,31.738,95.581
1.261,-0.100,1.266,162.598,39.429,91.187
1.355,-0.115,1.172,158.447,45.776,87.463
1.612,-0.045,0.977,149.048,49.438,77.148
1.643,-0.074,0.946,140.991,52.368,65.308
1.732,-0.013,0.950,130.188,45.959,44.861
1.740,0.025,0.970,129.150,40.588,36.194
1.754,0.045,0.983,128.784,35.950,23.804
1.687,0.003,0.858,135.437,30.273,-4.456
1.576,-0.029,0.772,137.634,27.039,-15.076
1.424,-0.005,0.646,138.733,24.109,-27.954
1.375,-0.008,0.595,137.878,32.227,-34.363
1.263,-0.043,0.444,129.456,50.598,-43.152
1.232,-0.059,0.371,124.451,58.289,-45.410
1.199,-0.062,0.288,116.821,61.584,-50.110
1.128,-0.022,0.167,95.886,67.749,-60.181
1.088,-0.032,0.141,81.970,74.463,-66.467
1.014,-0.047,0.122,56.396,85.938,-79.956
0.998,-0.051,0.168,48.462,84.900,-85.388
0.939,-0.089,0.147,36.316,86.548,-99.609
0.873,-0.140,0.163,29.541,91.858,-106.018
0.818,-0.201,0.129,23.682,97.900,-117.310
0.749,-0.241,0.042,20.996,98.511,-118.774
0.702,-0.261,-0.012,18.311,100.586,-120.911
0.608,-0.283,-0.103,12.573,91.675,-122.620
0.566,-0.272,-0.128,9.399,87.036,-123.840
0.506,-0.221,-0.133,2.197,74.829,-130.127
0.465,-0.199,-0.128,-2.991,66.956,-135.376
0.338,-0.164,-0.092,-8.301,49.377,-145.020
0.259,-0.148,-0.088,-9.766,40.833,-152.100
0.114,-0.169,-0.084,-17.517,27.893,-164.185
0.043,-0.184,-0.063,-22.034,24.048,-169.434
-0.127,-0.171,-0.012,-32.776,17.578,-174.316
-0.203,-0.172,0.012,-36.072,17.517,-174.072
-0.304,-0.135,-0.063,-41.931,24.048,-163.513
-0.348,-0.144,-0.131,-45.166,27.466,-153.931
-0.307,-0.137,-0.264,-56.824,31.250,-134.583
-0.300,-0.072,-0.216,-69.641,30.334,-130.615
-0.334,-0.086,-0.068,-83.069,20.264,-131.897
-0.343,-0.102,0.118,-91.125,-3.235,-142.456
-0.418,-0.161,0.189,-91.431,-16.296,-150.452
-0.611,-0.236,0.317,-95.276,-44.006,-157.410
-0.695,-0.232,0.360,-96.191,-54.138,-156.616
-0.825,-0.241,0.416,-99.487,-59.387,-148.743
-0.882,-0.258,0.491,-105.774,-57.922,-143.005
-0.994,-0.314,0.589,-111.267,-59.387,-124.023
-1.014,-0.291,0.662,-114.441,-62.439,-110.657
-1.023,-0.330,0.914,-120.728,-68.054,-89.966
-0.978,-0.268,1.012,-121.155,-72.815,-79.346

-0.782,-0.206,1.612,-105.164,-91.064,-57.739
-0.811,-0.207,1.605,-96.680,-98.145,-54.626
-0.859,-0.260,1.651,-88.928,-105.530,-49.316
-0.867,-0.259,1.714,-87.158,-106.018,-43.884
-0.827,-0.321,1.894,-85.754,-101.563,-30.334
-0.769,-0.320,2.004,-82.764,-101.318,-21.545
-0.604,-0.319,2.182,-74.707,-94.055,-6.409
-0.532,-0.364,2.219,-65.430,-91.370,0.732
-0.347,-0.395,2.165,-45.593,-85.693,18.005
-0.248,-0.426,2.167,-38.330,-80.017,26.428
0.022,-0.473,2.062,-18.616,-60.364,41.016
0.184,-0.487,1.984,-12.268,-52.734,45.715
0.465,-0.496,1.828,-1.038,-38.391,48.157
0.573,-0.462,1.821,1.038,-32.776,45.410
0.631,-0.435,1.803,4.028,-31.494,40.466
0.660,-0.383,1.709,15.015,-34.729,28.503
0.648,-0.355,1.664,20.447,-34.546,23.071
0.574,-0.284,1.535,30.701,-27.039,15.991
0.535,-0.262,1.468,33.936,-20.508,13.733
0.479,-0.185,1.334,39.673,-7.202,12.146
0.467,-0.153,1.270,42.419,-0.793,10.254
0.467,-0.125,1.188,44.189,5.371,7.812
0.421,-0.110,1.029,45.654,9.949,2.075
0.375,-0.076,0.965,44.739,9.399,-1.770
0.331,-0.058,0.913,42.114,7.324,-5.005
0.232,-0.011,0.848,37.354,7.629,-10.681
0.177,0.001,0.831,35.400,9.094,-14.038
0.057,-0.004,0.755,29.663,8.423,-15.564
0.018,0.001,0.731,26.855,6.409,-14.771
-0.010,0.031,0.734,23.804,3.967,-11.902
-0.008,0.076,0.703,22.400,0.061,-5.432
-0.012,0.087,0.698,17.212,4.761,-6.348
-0.005,0.103,0.680,12.268,6.165,-5.493
-0.020,0.115,0.660,10.254,4.761,-6.714
-0.018,0.090,0.647,7.568,0.977,-7.080
0.013,0.120,0.698,1.221,-6.042,-4.639
0.018,0.110,0.728,-0.305,-7.019,-4.822
0.014,0.098,0.739,-2.502,-7.324,-5.737
0.011,0.099,0.744,-5.066,-9.949,-6.042
0.007,0.104,0.741,-6.897,-10.864,-7.080
-0.007,0.096,0.757,-8.240,-10.742,-5.981
-0.047,0.052,0.759,-12.146,-11.108,-1.648
-0.039,0.061,0.769,-15.930,-11.475,2.502
0.013,0.084,0.830,-22.461,-7.812,7.202
0.034,0.079,0.852,-23.254,-5.981,8.179
0.075,0.095,0.902,-26.123,-8.362,7.202
0.093,0.098,0.923,-27.954,-10.620,5.310
0.102,0.075,0.929,-28.625,-11.719,4.395
0.112,0.062,0.966,-30.334,-16.235,2.808
0.116,0.060,0.993,-31.006,-17.456,1.160
0.115,0.020,1.029,-30.884,-17.090,-1.770
0.105,-0.012,1.060,-31.860,-17.578,-2.869
0.105,-0.033,1.086,-32.104,-18.372,-3.784
0.121,-0.040,1.149,-29.358,-20.142,-2.136
0.137,-0.034,1.176,-28.442,-21.729,-2.808
0.132,-0.038,1.191,-23.926,-20.935,-3.174
0.144,-0.032,1.191,-21.606,-20.386,-2.625
0.150,-0.030,1.146,-17.395,-18.677,-2.075
0.168,-0.021,1.138,-15.869,-16.235,-2.014
0.205,-0.012,1.124,-13.794,-11.292,-0.732
0.212,-0.008,1.114,-14.038,-9.949,-1.648
0.229,-0.011,1.088,-13.489,-8.667,-2.930
0.211,-0.007,1.085,-14.038,-8.423,-4.150
0.196,-0.010,1.103,-14.587,-9.033,-5.554
0.159,-0.012,1.103,-14.893,-10.620,-9.521
0.135,-0.022,1.105,-14.526,-10.010,-10.010
0.091,-0.025,1.104,-12.573,-11.108,-7.751
0.091,-0.019,1.104,-12.451,-10.864,-7.019
0.095,-0.013,1.105,-10.437,-7.996,-5.493
0.106,0.002,1.091,-9.155,-8.057,-5.676
0.104,-0.019,1.069,-8.850,-7.202,-5.432
0.104,-0.014,1.007,-9.277,-6.531,-3.662
0.118,-0.011,1.012,-11.475,-6.409,-3.601
0.135,-0.010,1.031,-13.245,-5.066,-2.625
0.136,0.002,1.048,-13.367,-4.272,-3.174
0.129,-0.008,1.041,-12.085,-5.737,-5.310
0.123,-0.001,1.028,-9.949,-6.287,-5.066
0.126,-0.009,1.009,-9.460,-8.057,-5.798
0.112,-0.018,0.970,-11.108,-7.324,-3.357
0.107,-0.012,0.990,-11.536,-7.019,-4.089
0.124,-0.002,1.019,-11.230,-5.066,-2.258
0.125,-0.002,1.024,-12.878,-5.432,-2.563
0.133,-0.007,1.016,-9.521,-4.211,-2.869
0.140,-0.007,0.978,-8.911,-5.188,-3.418
0.134,-0.004,0.962,-9.094,-5.371,-3.601
0.130,0.011,0.937,-12.268,-7.812,-2.380
0.127,0.011,0.946,-15.320,-9.766,-4.089
0.123,0.012,0.982,-15.259,-9.766,-3.479
0.119,0.016,0.992,-16.907,-10.742,-4.395
0.124,0.015,1.005,-16.357,-10.254,-3.723
0.111,-0.005,0.996,-16.846,-8.972,-3.418
0.107,-0.008,0.987,-16.724,-8.545,-2.869
0.133,-0.009,1.010,-19.043,-10.376,-0.671
0.139,0.001,1.035,-19.775,-10.315,-0.549
0.139,-0.010,1.080,-18.921,-9.583,-2.625
0.142,-0.015,1.083,-19.104,-9.583,-2.869
0.131,-0.015,1.075,-16.785,-9.155,-3.174
0.115,-0.018,1.064,-16.296,-11.108,-3.784
0.117,-0.017,1.070,-15.869,-10.132,-3.662
0.128,-0.014,1.079,-15.503,-8.057,-3.418
0.130,-0.010,1.083,-15.076,-8.057,-4.333
0.128,-0.026,1.051,-13.855,-8.057,-3.174
0.132,-0.027,1.032,-15.198,-8.667,-2.380
0.143,-0.015,1.038,-15.259,-7.202,-1.038
0.162,-0.011,1.060,-15.930,-5.432,-0.793
0.162,-0.013,1.070,-15.381,-4.456,-2.258
0.132,-0.034,1.058,-15.442,-7.019,-3.662
0.131,-0.026,1.056,-14.221,-8.240,-2.625
0.130,-0.033,1.052,-13.733,-6.958,-2.625
0.126,-0.031,1.071,-13.916,-5.554,-2.441
0.127,-0.031,1.075,-12.146,-5.554,-2.686
0.125,-0.031,1.051,-12.329,-6.104,-1.770
0.131,-0.023,1.053,-11.963,-6.042,-1.221
0.124,-0.024,1.064,-12.390,-3.967,-1.221
0.129,-0.023,1.061,-12.878,-3.723,-1.160
0.128,-0.022,1.024,-11.047,-4.761,-1.038
0.132,-0.021,1.022,-11.475,-5.371,-0.366
0.147,-0.012,1.034,-13.367,-5.005,-0.183
0.153,-0.004,1.035,-13.916,-4.456,-1.221

-1.113,-0.693,0.712,-179.443,-101.563,-118.469
-1.175,-0.737,0.909,-174.500,-115.051,-106.567
-1.221,-0.733,1.179,-158.630,-147.034,-80.688
-1.210,-0.725,1.282,-148.254,-162.048,-66.895
-1.167,-0.651,1.363,-123.840,-189.636,-36.621
-1.116,-0.638,1.290,-109.558,-203.308,-23.743
-0.945,-0.699,1.202,-89.966,-222.717,2.991
-0.826,-0.681,1.280,-77.881,-240.967,25.513
-0.650,-0.732,1.403,-70.129,-251.099,34.607
-0.542,-0.767,1.627,-54.810,-255.676,56.885
-0.490,-0.812,1.706,-42.725,-253.540,70.007
-0.254,-0.965,1.730,-19.592,-236.572,101.440
-0.073,-1.038,1.812,-11.841,-218.384,115.479
0.337,-1.162,1.976,7.874,-186.218,146.057
0.458,-1.141,2.147,18.921,-171.631,157.837
1.022,-1.082,2.190,34.851,-163.208,154.724
1.129,-0.955,2.170,51.880,-167.603,159.607
1.476,-0.877,2.031,62.317,-147.278,162.842
1.421,-0.715,2.107,68.054,-135.010,164.185
1.367,-0.684,2.135,80.566,-118.530,175.293
1.366,-0.571,2.173,97.290,-88.257,185.242
1.524,-0.513,2.103,102.356,-72.571,182.495
1.457,-0.404,1.869,98.022,-15.503,183.472
1.484,-0.321,1.948,86.365,13.489,164.734
1.608,-0.245,1.750,106.689,16.541,170.471
1.749,-0.163,1.663,102.356,12.695,155.273
1.873,-0.123,1.552,103.455,6.958,130.127
1.714,-0.093,1.586,96.191,8.362,110.840
1.653,-0.102,1.582,96.497,0.793,97.107
1.383,-0.118,1.740,92.529,-3.784,69.153
1.199,-0.139,1.816,94.849,-3.906,60.303
0.809,-0.146,1.875,110.229,11.719,60.242
0.724,-0.097,1.822,119.995,27.710,69.702
0.703,-0.064,1.725,137.817,69.336,92.285
0.861,-0.021,1.476,146.118,86.670,102.905
0.978,-0.006,1.373,147.827,100.830,107.239
1.140,-0.026,1.208,147.583,111.755,106.812
1.200,-0.065,1.126,146.057,108.948,101.807
1.259,-0.052,1.118,141.479,98.755,83.801
1.221,-0.104,1.132,137.024,95.215,71.899
1.088,-0.172,1.141,136.597,76.294,58.105
1.042,-0.216,1.085,139.648,65.552,56.702
0.986,-0.207,1.093,135.620,58.838,56.091
0.895,-0.220,1.046,138.489,58.899,58.838
0.909,-0.223,0.987,140.198,63.110,63.416
0.981,-0.267,0.811,141.296,70.190,68.848
1.040,-0.270,0.727,140.320,71.472,70.496
1.198,-0.248,0.538,133.667,68.848,65.063
1.275,-0.233,0.457,130.493,67.444,59.326
1.337,-0.241,0.397,124.817,63.782,50.720
1.456,-0.222,0.346,109.924,62.866,28.748
1.467,-0.228,0.315,103.271,65.125,14.832
1.469,-0.272,0.233,89.478,61.523,-10.193
1.423,-0.312,0.188,83.801,60.059,-21.729
1.323,-0.343,0.079,68.787,61.768,-40.405
1.268,-0.353,0.077,58.167,65.674,-46.204
1.225,-0.336,0.123,49.194,67.688,-51.819
1.094,-0.305,0.205,37.964,74.158,-64.270
1.021,-0.271,0.237,35.522,78.796,-71.228
0.878,-0.242,0.266,34.180,84.717,-83.069
0.814,-0.218,0.254,34.912,83.923,-89.294
0.707,-0.195,0.167,35.095,75.623,-97.656
0.674,-0.172,0.124,34.241,68.176,-101.379
0.637,-0.127,0.070,33.020,60.364,-107.239
0.591,-0.104,-0.075,25.940,46.509,-121.460
0.572,-0.077,-0.129,20.203,40.344,-128.479
0.525,-0.062,-0.222,7.019,26.123,-141.663
0.499,-0.021,-0.232,-1.160,18.188,-145.996
0.414,0.049,-0.202,-17.273,10.193,-161.743
0.345,0.058,-0.172,-24.902,11.169,-168.152
0.196,0.056,-0.073,-39.001,13.733,-178.711
0.112,0.032,-0.022,-43.701,15.564,-181.030
-0.093,0.006,0.094,-53.711,14.893,-180.847
-0.173,0.005,0.147,-58.716,15.076,-178.406
-0.220,0.020,0.175,-64.148,18.494,-170.166
-0.216,0.026,0.187,-66.406,17.395,-166.016
-0.206,0.071,0.169,-67.932,17.029,-161.255
-0.221,0.071,0.146,-69.458,15.503,-157.898
-0.288,-0.012,0.114,-74.829,13.306,-156.311
-0.330,-0.041,0.116,-81.543,12.207,-156.433
-0.427,-0.097,0.249,-98.145,5.676,-153.687
-0.457,-0.107,0.327,-103.821,3.235,-152.893
-0.518,-0.141,0.564,-114.014,-2.319,-148.254
-0.537,-0.146,0.697,-117.676,-5.920,-144.775
-0.559,-0.145,0.853,-111.694,-12.817,-135.986
-0.569,-0.132,0.905,-107.605,-16.174,-132.690
-0.627,-0.149,0.889,-97.168,-26.733,-124.390
-0.657,-0.160,0.839,-91.980,-33.325,-118.835
-0.740,-0.222,0.708,-88.989,-42.419,-107.300
-0.782,-0.257,0.739,-95.520,-44.250,-98.694
-0.821,-0.293,0.922,-107.178,-48.401,-84.778
-0.795,-0.299,1.012,-113.037,-53.589,-70.129
-0.716,-0.241,1.253,-114.563,-54.810,-63.965
-0.608,-0.197,1.445,-107.910,-62.988,-57.129
-0.571,-0.164,1.500,-102.600,-67.505,-54.077
-0.566,-0.149,1.547,-87.585,-72.266,-51.880
-0.596,-0.195,1.545,-81.848,-73.914,-50.537
-0.656,-0.261,1.605,-73.120,-80.933,-41.809
-0.689,-0.278,1.684,-71.411,-83.374,-36.865
-0.710,-0.307,1.834,-65.674,-85.938,-20.386
-0.707,-0.298,1.876,-60.791,-87.646,-11.292
-0.571,-0.239,1.899,-49.561,-88.440,7.690
-0.464,-0.208,1.921,-44.861,-83.862,15.991
-0.228,-0.192,1.992,-33.081,-71.106,28.076
-0.148,-0.219,1.982,-26.367,-65.552,30.457
0.013,-0.302,1.857,-12.573,-61.035,37.048
0.092,-0.339,1.784,-8.484,-57.495,38.879
0.253,-0.378,1.665,-2.991,-45.288,45.227
0.327,-0.397,1.640,-3.357,-39.612,47.363
0.398,-0.388,1.637,-2.869,-35.461,48.584
0.546,-0.340,1.583,1.038,-27.893,46.936
0.593,-0.335,1.557,3.601,-24.048,45.044
0.672,-0.259,1.486,9.338,-18.616,39.368
0.683,-0.221,1.426,13.733,-16.541,34.607
0.685,-0.205,1.359,17.639,-13.245,29.541
0.665,-0.154,1.235,21.851,-9.644,19.287
0.633,-0.137,1.169,24.170,-7.935,15.076
0.551,-0.117,1.075,22.644,-3.723,5.798
0.519,-0.085,1.046,21.851,-4.395,2.563

-0.714,-0.977,0.971,-275.940,-139.465,-102.234
-0.792,-1.023,1.407,-271.301,-146.545,-93.018
-1.052,-1.145,2.167,-253.662,-167.542,-71.777
-1.074,-1.092,2.395,-232.056,-187.073,-52.063
-0.967,-0.956,2.688,-169.128,-220.947,-15.991
-0.886,-0.893,2.678,-127.747,-233.459,-0.610
-0.835,-0.965,2.298,-58.289,-250.610,28.503
-0.737,-0.909,2.117,-17.212,-257.751,61.890
-0.448,-0.824,1.846,-1.770,-254.150,77.759
-0.304,-0.793,1.715,7.812,-249.146,88.440
0.305,-0.856,1.438,35.095,-237.732,118.958
0.220,-0.817,1.569,22.095,-267.700,89.050
0.447,-0.809,1.496,47.546,-241.394,129.150
0.591,-0.806,1.492,36.377,-208.313,122.192
0.688,-0.755,1.672,29.358,-162.109,133.240
0.749,-0.710,1.775,36.072,-148.682,148.743
1.019,-0.591,1.894,54.504,-120.239,165.894
1.212,-0.529,1.914,63.721,-101.746,171.082
1.787,-0.556,1.858,72.388,-74.341,163.208
1.969,-0.444,1.658,78.491,-74.890,153.198
1.803,-0.369,1.804,60.364,-38.513,126.770
1.791,-0.412,1.728,73.608,-43.274,127.747
1.719,-0.270,1.790,83.435,-40.283,121.094
1.630,-0.211,1.687,92.834,-40.222,115.967
1.528,-0.198,1.756,92.651,-22.949,111.267
1.340,-0.154,1.722,102.173,5.066,109.619
1.328,-0.122,1.693,109.497,19.470,110.046
1.309,-0.064,1.574,120.483,45.593,110.596
1.353,-0.104,1.609,124.512,56.396,110.291
1.345,-0.053,1.469,133.606,59.998,98.877
1.283,-0.031,1.418,134.338,61.035,91.919
1.202,-0.023,1.391,135.010,63.477,81.787
1.041,0.038,1.360,135.193,63.293,79.285
0.954,0.066,1.339,134.644,63.232,77.881
0.840,0.126,1.250,137.451,71.716,77.454
0.790,0.158,1.182,136.597,76.050,79.163
0.791,0.159,1.052,136.658,87.341,84.106
0.845,0.127,0.961,136.963,95.276,87.524
0.911,0.102,0.877,132.812,102.478,87.158
1.062,0.039,0.804,121.704,109.192,87.402
1.166,0.067,0.885,114.807,109.558,84.656
1.263,0.040,0.921,113.525,97.473,72.021
1.245,0.017,0.877,114.441,84.351,62.927
1.226,0.021,0.829,116.333,68.420,56.396
1.228,0.056,0.736,118.958,43.152,41.565
1.196,0.053,0.688,117.737,37.048,33.325
1.136,-0.021,0.582,114.746,22.827,19.226
1.115,-0.079,0.502,113.281,18.677,14.221
1.103,-0.143,0.408,109.863,18.066,10.376
1.134,-0.194,0.270,95.642,25.452,9.338
1.171,-0.186,0.241,87.341,34.241,8.606
1.291,-0.153,0.224,68.787,51.575,3.174
1.359,-0.140,0.252,59.692,57.190,-1.465
1.416,-0.116,0.267,52.368,63.538,-8.850
1.459,-0.089,0.326,42.603,68.787,-26.917
1.445,-0.089,0.319,40.649,69.397,-36.133
1.322,-0.122,0.307,35.034,71.411,-57.434
1.239,-0.136,0.290,33.081,71.045,-65.857
1.162,-0.144,0.258,29.907,69.092,-73.914
1.023,-0.164,0.216,24.231,69.336,-86.609
0.964,-0.138,0.227,20.081,71.045,-91.919
0.832,-0.123,0.244,14.832,70.557,-99.426
0.766,-0.104,0.253,12.939,67.688,-105.713
0.670,-0.104,0.235,10.498,57.190,-113.525
0.629,-0.091,0.215,8.606,51.392,-117.188
0.597,-0.089,0.189,4.578,39.551,-126.526
0.587,-0.074,0.123,0.732,36.072,-133.179
0.570,-0.088,0.110,-4.089,36.560,-138.733
0.562,-0.087,0.082,-15.991,30.701,-150.208
0.524,-0.068,0.088,-22.644,25.879,-157.837
0.444,-0.047,0.093,-31.372,13.916,-169.250
0.366,-0.045,0.079,-36.194,11.047,-174.194
0.190,-0.075,0.043,-45.410,4.333,-178.101
0.096,-0.073,0.048,-50.964,4.639,-175.964
-0.080,-0.052,0.137,-62.195,10.071,-170.105
-0.121,-0.045,0.170,-65.857,14.465,-165.649
-0.190,-0.073,0.209,-72.510,27.039,-154.480
-0.222,-0.075,0.227,-74.402,33.508,-148.071
-0.198,-0.067,0.264,-80.811,37.292,-140.930
-0.183,-0.096,0.274,-83.435,40.161,-140.381
-0.221,-0.120,0.343,-91.431,37.415,-141.785
-0.234,-0.125,0.389,-94.177,30.762,-142.456
-0.285,-0.158,0.421,-99.060,16.357,-142.578
-0.335,-0.157,0.440,-103.027,8.911,-141.418
-0.435,-0.150,0.528,-109.436,-0.610,-136.292
-0.503,-0.173,0.571,-112.732,-2.380,-134.521
-0.655,-0.191,0.768,-123.047,-1.892,-127.136
-0.731,-0.224,0.872,-125.916,-6.287,-121.155
-0.831,-0.226,1.129,-128.723,-9.583,-106.323
-0.845,-0.216,1.255,-126.221,-11.719,-100.830
-0.838,-0.203,1.508,-115.662,-23.132,-88.318
-0.848,-0.201,1.618,-98.145,-38.635,-76.782
-0.843,-0.197,1.648,-88.379,-45.044,-69.946
-0.839,-0.183,1.691,-75.989,-55.115,-56.274
-0.831,-0.160,1.704,-68.909,-59.265,-48.767
-0.817,-0.138,1.678,-60.059,-58.594,-35.889
-0.795,-0.144,1.714,-58.228,-55.542,-25.696
-0.740,-0.127,1.754,-54.199,-53.040,-6.714
-0.703,-0.127,1.758,-50.903,-51.941,1.038
-0.602,-0.113,1.738,-44.556,-49.255,17.212
-0.552,-0.119,1.737,-41.687,-48.340,23.560
-0.487,-0.131,1.729,-35.522,-45.654,34.729
-0.329,-0.137,1.722,-31.677,-45.288,39.124
-0.243,-0.154,1.696,-21.667,-43.579,45.471
-0.070,-0.198,1.620,-16.663,-42.053,49.316
0.028,-0.208,1.564,-12.512,-40.588,50.171
0.178,-0.244,1.464,-5.188,-34.058,53.345
0.258,-0.245,1.428,-2.380,-29.541,54.443
0.407,-0.225,1.349,1.160,-20.874,54.016
0.480,-0.213,1.309,3.113,-15.991,53.650
0.594,-0.200,1.223,6.287,-10.742,46.509
0.622,-0.180,1.171,7.812,-8.850,41.931
0.621,-0.189,1.132,9.155,-7.996,37.415
0.615,-0.140,1.094,9.155,-7.446,26.855
0.614,-0.108,1.091,8.972,-6.348,21.545
0.599,-0.096,1.087,10.681,-4.028,16.418
0.526,-0.065,1.037,14.038,-2.991,5.920
0.492,-0.061,0.990,14.404,-5.615,1.892
0.426,-0.013,0.893,16.113,-6.958,-2.930
