aX,aY,aZ,gX,gY,gZ
0.822,-0.523,1.164,-120.361,-15.015,-128.235
0.778,-0.536,1.253,-121.460,-17.456,-134.033
0.733,-0.535,1.298,-122.925,-30.334,-130.249
0.702,-0.516,1.317,-126.221,-37.903,-121.887
0.682,-0.509,1.361,-138.977,-43.579,-111.267
0.713,-0.547,1.408,-141.968,-40.527,-111.816
0.860,-0.765,1.543,-128.540,-33.691,-131.470
0.862,-0.874,1.657,-114.380,-26.123,-146.973
0.665,-0.972,1.916,-99.365,-1.282,-171.936
0.620,-0.889,2.089,-95.520,4.883,-171.997
0.522,-0.766,2.332,-87.158,21.912,-170.715
0.466,-0.702,2.363,-79.285,28.564,-157.654
0.393,-0.601,2.333,-65.796,26.428,-125.549
0.372,-0.596,2.258,-57.739,18.860,-115.723
0.450,-0.707,1.983,-35.034,0.671,-108.704
0.544,-0.741,1.776,-23.010,-0.549,-103.699
0.756,-0.856,1.463,-9.216,14.160,-98.755
0.770,-0.802,1.364,3.784,22.644,-94.910
0.867,-0.827,1.251,-3.723,-9.766,-110.657
1.034,-0.824,1.111,-4.089,-17.090,-112.427
1.095,-0.770,1.083,-4.333,-24.902,-117.310
1.124,-0.734,1.059,-4.456,-44.250,-135.742
1.112,-0.764,1.038,-3.906,-48.828,-144.653
1.034,-0.788,1.027,-6.958,-56.030,-151.672
0.991,-0.734,1.090,-6.592,-53.162,-150.391
0.749,-0.688,1.193,-0.366,-46.387,-150.696
0.666,-0.647,1.225,3.113,-45.776,-146.790
0.520,-0.562,1.278,13.367,-48.523,-134.277
0.513,-0.522,1.313,20.081,-47.607,-130.981
0.429,-0.477,1.271,40.039,-40.283,-129.150
0.410,-0.461,1.282,50.964,-43.152,-125.122
0.304,-0.468,1.250,67.932,-38.208,-115.723
0.372,-0.510,1.228,75.012,-40.161,-103.577
0.315,-0.572,1.076,88.074,-38.696,-112.122
0.230,-0.589,1.104,91.003,-32.593,-113.953
0.152,-0.498,1.184,100.220,-12.756,-115.417
0.141,-0.446,1.171,107.117,0.183,-114.075
0.083,-0.406,1.241,108.459,33.691,-109.619
0.065,-0.403,1.210,108.459,46.448,-107.788
0.107,-0.262,1.219,101.624,71.472,-93.994
0.090,-0.237,1.246,103.577,84.351,-88.440
0.258,0.142,1.397,108.276,94.177,-80.627
0.207,-0.278,1.017,150.696,95.398,-65.796
0.270,-0.276,1.021,138.123,101.624,-59.387
0.315,-0.178,1.037,121.521,127.502,-75.012
0.313,-0.154,1.033,120.239,138.428,-72.998
0.273,-0.107,1.231,116.150,151.123,-78.064
0.372,-0.210,1.028,128.296,132.446,-67.871
0.423,-0.081,1.010,121.765,108.154,-53.406
0.332,-0.071,0.998,113.159,107.910,-68.909
0.215,-0.092,0.988,112.000,111.877,-75.317
0.286,0.235,1.148,109.985,122.253,-75.073
0.076,-0.119,0.900,118.347,121.765,-59.875
0.062,-0.046,1.054,111.328,131.409,-47.852
0.006,0.006,1.038,110.657,153.259,-50.781
0.035,0.017,1.034,112.061,162.598,-46.570
0.040,-0.012,1.033,113.342,169.739,-43.640
0.116,0.004,0.972,108.337,173.523,-28.564
0.295,0.289,1.050,102.478,179.565,-22.949
0.143,-0.108,0.825,89.722,162.537,-19.409
0.113,0.014,0.876,84.656,157.166,-7.935
0.003,0.019,0.811,73.059,131.042,-12.390
-0.040,0.036,0.859,66.284,120.422,-11.169
-0.214,0.093,0.939,53.101,121.887,-19.287
-0.227,0.049,0.914,55.237,102.539,-14.893
-0.240,0.208,0.983,64.636,99.548,-1.892
-0.341,0.230,1.004,66.101,109.558,1.831
-0.367,0.233,1.011,69.702,114.990,7.812
-0.338,0.251,0.964,78.125,132.690,20.386
-0.353,0.220,0.928,80.078,142.151,22.522
-0.352,0.224,0.878,79.224,156.921,32.471
-0.299,0.206,0.839,78.308,163.208,34.180
-0.319,0.194,0.837,74.890,168.884,33.508
-0.375,0.170,0.844,66.284,169.434,34.668
-0.423,0.176,0.852,61.951,168.030,37.659
-0.475,0.204,0.883,56.641,154.663,51.880
-0.457,0.214,0.859,55.054,142.456,59.692
-0.435,0.221,0.823,54.749,127.869,69.214
-0.410,0.210,0.721,54.016,123.413,72.998
-0.396,0.204,0.664,51.392,120.544,74.097
-0.408,0.174,0.544,43.762,119.202,77.759
-0.378,0.187,0.493,39.063,117.310,78.308
-0.323,0.184,0.477,27.649,119.507,72.937
-0.327,0.165,0.474,20.874,122.314,67.505
-0.355,0.157,0.480,12.756,123.230,64.514
-0.360,0.136,0.443,-5.371,119.385,64.758
-0.378,0.109,0.472,-19.104,115.051,63.599
-0.398,0.120,0.502,-26.367,104.065,70.740
-0.365,0.165,0.501,-24.841,97.107,78.552
-0.393,0.256,0.472,-24.719,88.623,74.951
-0.411,0.187,0.506,-31.921,91.614,72.144
-0.413,0.195,0.482,-30.823,87.646,85.815
-0.403,0.158,0.429,-34.363,85.815,88.501
-0.372,0.120,0.396,-39.368,84.412,91.919
-0.303,0.116,0.367,-51.086,82.214,102.051
-0.245,0.117,0.372,-57.129,80.078,104.736
-0.157,0.155,0.420,-68.542,73.914,99.426
-0.146,0.173,0.448,-73.059,70.496,93.445
-0.176,0.188,0.506,-77.942,57.861,87.646
-0.153,0.240,0.537,-80.200,48.889,87.219
-0.138,0.287,0.575,-80.017,41.626,84.106
-0.198,0.291,0.621,-77.942,32.410,72.266
-0.245,0.271,0.616,-73.547,28.870,70.374
-0.284,0.235,0.642,-75.378,21.362,69.580
-0.296,0.237,0.650,-74.829,20.813,70.557
-0.301,0.219,0.662,-74.524,20.630,71.228
-0.294,0.184,0.684,-74.341,17.639,72.510
-0.271,0.156,0.672,-72.449,14.893,75.684
-0.165,0.163,0.620,-74.768,4.822,92.285
-0.092,0.188,0.611,-77.026,-1.953,97.839
0.034,0.221,0.585,-76.599,-5.554,92.041
0.048,0.217,0.587,-76.904,-8.240,85.571
0.064,0.216,0.605,-77.087,-11.047,79.773
0.028,0.221,0.679,-78.857,-17.273,69.336
-0.019,0.212,0.711,-80.322,-22.461,66.040
-0.092,0.201,0.773,-82.031,-33.142,63.782
-0.100,0.208,0.782,-78.064,-39.001,63.843
-0.097,0.205,0.774,-76.172,-44.434,61.462
-0.078,0.200,0.759,-76.111,-43.091,62.439

0.698,-0.624,1.202,-139.343,-1.526,-105.225
0.672,-0.571,1.353,-146.179,-8.362,-113.342
0.575,-0.445,1.573,-143.860,-24.231,-118.958
0.557,-0.422,1.626,-137.329,-30.701,-122.009
0.445,-0.382,1.703,-122.986,-31.677,-125.061
0.376,-0.418,1.685,-112.793,-29.724,-123.596
0.315,-0.574,1.554,-94.299,-26.611,-120.117
0.290,-0.651,1.474,-88.257,-19.714,-115.906
0.448,-0.762,1.353,-85.632,-2.136,-112.000
0.566,-0.797,1.341,-87.646,7.080,-120.422
0.679,-0.743,1.562,-95.581,33.325,-148.987
0.721,-0.661,1.655,-93.018,37.598,-156.860
0.643,-0.491,1.870,-66.528,55.664,-160.828
0.588,-0.512,1.917,-58.655,27.893,-163.269
0.552,-0.593,1.851,-47.119,-19.470,-153.564
0.508,-0.647,1.799,-36.011,-26.855,-141.846
0.375,-0.726,1.695,-18.921,-47.852,-121.887
0.388,-0.730,1.610,-12.573,-58.777,-117.371
0.396,-0.731,1.502,-8.606,-51.697,-118.469
0.361,-0.738,1.457,-9.216,-41.321,-118.774
0.353,-0.710,1.347,-6.470,-28.748,-103.210
0.384,-0.667,1.316,-4.517,-26.367,-89.172
0.512,-0.577,1.285,-6.470,-24.597,-79.773
0.564,-0.590,1.287,-7.324,-29.846,-85.022
0.586,-0.592,1.252,-5.798,-34.607,-94.299
0.630,-0.601,1.229,-3.418,-46.631,-106.323
0.556,-0.571,1.284,-3.479,-44.128,-109.619
0.398,-0.559,1.316,1.526,-40.527,-113.953
0.330,-0.579,1.339,6.165,-42.664,-115.662
0.248,-0.547,1.477,11.414,-37.781,-110.229
0.236,-0.517,1.390,13.794,-40.955,-99.304
0.217,-0.546,1.334,22.949,-24.475,-115.662
0.227,-0.510,1.322,24.780,-15.503,-112.061
0.250,-0.437,1.299,26.672,-5.554,-104.675
0.262,-0.437,1.276,30.212,-4.211,-102.478
0.191,-0.437,1.310,32.166,8.118,-93.567
0.167,-0.445,1.240,33.020,11.108,-81.726
0.172,-0.402,1.267,32.654,13.733,-70.618
0.224,-0.264,1.323,39.917,16.602,-71.533
0.198,-0.287,1.302,49.072,17.883,-78.735
0.165,-0.300,1.274,59.753,28.748,-74.707
0.209,-0.225,1.290,60.242,33.875,-70.618
0.199,-0.182,1.282,73.242,35.156,-72.754
0.155,-0.155,1.285,77.576,31.738,-70.251
0.156,-0.106,1.344,81.970,31.799,-68.359
0.093,-0.120,1.287,93.445,32.349,-62.378
0.109,-0.090,1.311,94.055,35.645,-60.730
0.219,0.077,1.404,100.159,51.147,-63.232
0.139,-0.107,1.307,112.427,60.181,-70.801
0.190,-0.038,1.334,113.281,77.942,-66.284
0.178,-0.021,1.328,117.065,87.097,-69.153
0.184,-0.024,1.328,124.878,93.872,-68.420
0.188,-0.053,1.315,134.521,105.957,-69.763
0.135,-0.047,1.324,139.465,112.366,-68.542
0.129,-0.056,1.286,145.813,122.070,-68.604
0.151,-0.088,1.257,145.996,125.488,-68.420
0.148,-0.017,1.243,137.390,127.686,-58.960
0.165,0.024,1.240,134.949,124.268,-52.124
0.166,0.081,1.164,130.981,112.488,-43.518
0.160,0.113,1.089,129.761,108.459,-41.565
0.194,0.243,1.038,122.925,113.281,-43.640
0.023,0.084,0.949,116.272,133.179,-58.167
-0.031,0.071,0.897,115.723,126.465,-40.955
-0.087,0.119,0.917,109.314,132.996,-42.358
-0.177,0.089,0.925,104.553,137.573,-41.260
-0.206,0.090,0.926,100.403,137.146,-34.180
-0.225,0.129,0.923,97.046,135.010,-21.667
-0.199,0.147,0.910,97.595,131.592,-18.005
-0.171,0.125,0.888,96.680,129.272,-13.062
-0.196,0.145,0.866,89.172,130.737,-7.568
-0.212,0.162,0.878,84.412,130.188,-3.906
-0.314,0.149,0.901,77.759,125.977,-0.549
-0.369,0.195,0.906,75.439,122.131,4.272
-0.491,0.231,0.906,69.336,120.422,8.423
-0.548,0.233,0.904,69.336,124.634,9.277
-0.603,0.253,0.921,65.796,128.296,10.681
-0.731,0.239,0.896,60.669,138.794,18.677
-0.737,0.283,0.868,62.317,144.653,26.611
-0.730,0.259,0.818,63.599,152.710,37.048
-0.728,0.237,0.778,62.378,158.325,38.147
-0.739,0.209,0.740,61.584,162.781,41.443
-0.684,0.186,0.703,52.734,166.870,52.673
-0.659,0.187,0.674,44.678,167.297,58.716
-0.593,0.076,0.664,23.682,154.846,70.129
-0.561,0.100,0.609,22.583,144.897,79.590
-0.499,0.089,0.470,13.000,120.056,86.731
-0.512,0.067,0.408,3.723,108.704,87.708
-0.521,0.057,0.354,-5.615,98.816,88.318
-0.502,0.059,0.310,-23.865,85.327,93.811
-0.497,0.086,0.295,-30.090,83.679,94.177
-0.511,0.066,0.246,-41.138,83.374,85.754
-0.543,0.042,0.256,-47.607,83.862,79.529
-0.556,0.018,0.261,-46.814,77.881,82.947
-0.522,0.010,0.311,-47.058,74.768,92.285
-0.484,0.029,0.362,-46.326,72.754,102.417
-0.394,0.066,0.416,-43.640,63.904,112.305
-0.360,0.031,0.432,-40.894,59.570,112.244
-0.371,-0.021,0.380,-49.133,59.448,103.943
-0.352,-0.027,0.342,-48.950,56.641,115.356
-0.320,-0.081,0.292,-60.913,41.138,125.671
-0.289,-0.070,0.281,-67.261,34.058,129.150
-0.206,-0.064,0.282,-80.322,21.667,138.306
-0.134,-0.037,0.324,-85.022,18.066,140.564
-0.029,0.024,0.399,-92.041,12.390,127.502
-0.028,0.029,0.442,-92.712,10.986,118.774
-0.009,0.057,0.491,-94.604,6.531,107.056
0.026,0.099,0.568,-95.398,3.479,100.037
0.028,0.092,0.588,-93.567,1.404,93.384
0.016,0.043,0.586,-94.055,-8.118,88.806
0.021,0.049,0.594,-92.041,-13.977,92.285
0.032,0.014,0.605,-93.994,-27.405,97.107
0.034,0.014,0.617,-94.055,-32.959,98.572
0.065,0.033,0.644,-91.736,-36.621,101.440
0.123,0.040,0.672,-89.722,-40.955,103.516
0.157,0.056,0.679,-87.219,-42.297,105.103
0.264,0.099,0.658,-82.520,-42.053,104.553
0.325,0.113,0.635,-80.811,-41.016,100.708
0.405,0.060,0.607,-79.895,-36.377,83.679
0.411,0.043,0.613,-81.787,-35.095,76.965

0.739,-0.515,1.270,-130.920,23.193,-83.557
0.672,-0.556,1.380,-133.728,12.451,-90.454
0.486,-0.446,1.657,-134.277,-8.118,-92.957
0.399,-0.353,1.770,-131.470,-16.968,-86.182
0.310,-0.217,1.853,-124.207,-28.076,-74.646
0.319,-0.185,1.829,-117.065,-27.588,-68.848
0.291,-0.229,1.707,-101.746,-18.799,-63.599
0.292,-0.276,1.612,-91.675,-14.587,-63.599
0.412,-0.462,1.348,-76.660,-8.179,-57.373
0.494,-0.525,1.256,-75.989,-6.042,-52.917
0.543,-0.583,1.134,-79.468,-5.310,-53.833
0.684,-0.604,1.097,-91.736,-7.385,-57.373
0.741,-0.673,1.098,-98.877,-8.972,-71.045
0.863,-0.584,1.208,-113.586,-61.646,-92.346
0.789,-0.550,1.306,-109.741,-52.063,-99.060
0.640,-0.572,1.403,-103.821,-42.725,-113.892
0.507,-0.569,1.430,-98.755,-39.978,-120.667
0.442,-0.583,1.401,-95.703,-35.645,-112.854
0.445,-0.591,1.387,-94.910,-31.311,-108.948
0.474,-0.606,1.345,-89.294,-16.846,-112.488
0.523,-0.629,1.348,-86.853,-12.512,-117.432
0.588,-0.687,1.413,-76.843,-2.014,-130.371
0.597,-0.706,1.438,-73.853,1.343,-134.155
0.598,-0.686,1.531,-68.237,-2.625,-135.132
0.595,-0.634,1.571,-63.293,-9.094,-136.597
0.499,-0.619,1.614,-52.185,-27.649,-142.334
0.458,-0.608,1.629,-45.776,-32.532,-142.456
0.411,-0.571,1.621,-37.781,-34.485,-140.137
0.398,-0.585,1.579,-30.457,-33.936,-142.639
0.365,-0.562,1.478,-22.278,-28.564,-156.189
0.392,-0.560,1.443,-18.250,-21.667,-159.119
0.514,-0.541,1.359,-10.315,-10.254,-165.955
0.564,-0.527,1.335,-6.836,-6.653,-168.030
0.503,-0.470,1.371,0.610,-8.789,-164.612
0.454,-0.457,1.374,4.211,-16.785,-156.677
0.399,-0.419,1.395,13.550,-24.170,-156.494
0.363,-0.421,1.380,18.677,-27.954,-152.710
0.167,-0.389,1.396,25.757,-27.039,-133.240
0.112,-0.308,1.395,31.738,-25.879,-119.812
0.101,-0.177,1.351,46.448,-20.203,-102.905
0.064,-0.161,1.362,55.298,-16.418,-101.501
0.151,-0.157,1.305,82.947,-5.005,-110.535
0.219,-0.138,1.256,95.154,2.441,-112.122
0.234,-0.210,1.237,107.849,21.851,-108.398
0.302,-0.259,1.143,104.492,31.616,-107.422
0.297,-0.242,1.145,101.074,39.490,-107.178
0.329,-0.223,1.123,99.487,46.143,-102.600
0.342,-0.173,1.146,98.450,50.293,-103.821
0.253,-0.228,1.070,100.220,58.777,-100.708
0.268,-0.146,1.124,93.567,64.270,-94.910
0.134,-0.145,1.173,91.919,72.266,-93.445
0.114,-0.127,1.210,93.384,76.172,-87.769
0.129,-0.056,1.250,93.201,88.684,-75.562
0.117,-0.021,1.259,96.313,92.529,-76.233
0.109,-0.016,1.277,96.436,96.985,-75.867
0.143,0.020,1.266,104.980,97.534,-69.702
0.123,0.021,1.207,107.971,94.727,-68.787
0.096,-0.025,1.083,110.168,91.614,-57.861
0.119,0.026,1.066,110.474,90.576,-53.162
0.031,-0.069,0.877,109.314,93.750,-40.771
0.008,-0.015,0.902,102.661,98.206,-33.142
-0.045,-0.005,0.895,98.267,110.107,-28.015
-0.022,0.082,0.956,95.947,116.882,-23.254
-0.027,0.147,1.015,91.614,135.010,-24.658
-0.079,-0.052,0.876,95.581,128.174,-12.817
-0.005,0.070,1.002,88.867,131.958,4.578
-0.062,0.069,0.968,88.074,132.874,3.174
-0.089,0.074,0.994,86.060,132.629,8.301
-0.129,0.077,1.004,84.778,126.343,14.465
-0.142,0.056,1.026,82.825,122.742,12.878
-0.191,0.042,1.044,79.956,120.911,13.977
-0.251,0.047,1.088,75.256,115.417,24.780
-0.244,0.084,1.106,73.730,113.464,30.579
-0.265,0.165,1.117,71.350,115.723,35.828
-0.292,0.173,1.099,71.716,116.516,37.842
-0.337,0.177,1.038,72.571,116.028,48.584
-0.345,0.178,1.016,73.303,115.967,53.345
-0.361,0.170,0.981,72.510,118.103,57.312
-0.428,0.146,0.944,70.923,126.404,59.753
-0.458,0.116,0.948,66.650,130.310,62.744
-0.472,0.124,0.922,62.683,134.216,71.594
-0.481,0.103,0.900,62.134,134.521,76.111
-0.493,0.071,0.876,55.603,126.770,90.881
-0.463,0.057,0.790,53.284,122.253,98.511
-0.442,0.076,0.754,49.744,118.347,103.943
-0.322,0.055,0.726,48.035,114.380,109.192
-0.259,0.072,0.758,44.739,118.103,111.328
-0.168,0.040,0.750,40.039,119.080,112.610
-0.159,0.017,0.741,38.086,115.906,108.704
-0.218,-0.009,0.708,30.640,106.506,105.164
-0.181,0.096,0.729,25.757,104.431,103.516
-0.277,-0.080,0.554,14.038,93.445,96.741
-0.241,-0.015,0.550,16.663,80.566,106.018
-0.236,0.009,0.559,11.841,78.735,108.826
-0.210,0.011,0.522,5.371,74.585,103.333
-0.174,0.010,0.513,3.723,75.684,104.614
-0.183,0.043,0.530,-4.944,79.163,108.826
-0.182,0.071,0.534,-6.348,77.759,111.206
-0.148,0.089,0.525,-8.667,68.359,112.122
-0.086,0.043,0.514,-15.076,68.298,95.154
-0.095,0.009,0.495,-17.700,68.420,104.675
-0.035,0.029,0.442,-20.813,57.983,111.633
0.004,0.060,0.439,-25.330,49.805,113.037
0.072,0.099,0.418,-33.081,41.138,108.582
0.091,0.119,0.439,-35.706,40.039,104.553
0.090,0.162,0.491,-43.884,41.016,95.642
0.082,0.183,0.522,-47.668,39.124,89.661
0.064,0.209,0.536,-50.354,34.729,84.839
0.019,0.214,0.589,-52.002,25.879,79.529
0.010,0.204,0.604,-54.504,19.287,78.064
0.020,0.215,0.628,-57.373,9.888,73.486
-0.060,0.219,0.677,-57.434,7.324,71.594
-0.108,0.224,0.717,-57.739,4.028,72.876
-0.081,0.270,0.686,-57.312,-4.700,80.261
-0.048,0.276,0.691,-58.960,-8.179,83.313
0.023,0.332,0.700,-59.937,-3.479,84.717
0.034,0.344,0.697,-61.523,0.000,81.421
0.025,0.337,0.717,-60.486,2.991,77.881
0.051,0.344,0.705,-60.669,0.061,81.726

0.470,-0.761,1.297,-89.844,14.160,-112.366
0.442,-0.864,1.333,-90.576,23.010,-121.033
0.422,-0.786,1.415,-86.304,5.676,-132.141
0.420,-0.767,1.446,-82.397,2.380,-134.644
0.441,-0.758,1.431,-69.336,12.207,-129.578
0.441,-0.764,1.396,-66.345,10.620,-132.263
0.432,-0.773,1.361,-63.843,6.714,-132.935
0.458,-0.735,1.289,-55.176,-5.615,-131.836
0.458,-0.750,1.270,-51.819,-10.254,-131.042
0.426,-0.727,1.210,-46.631,-16.418,-122.742
0.464,-0.679,1.180,-43.335,-18.250,-119.812
0.492,-0.665,1.124,-34.729,-19.348,-122.253
0.492,-0.699,1.121,-29.968,-18.799,-122.620
0.500,-0.758,1.167,-21.179,-12.878,-126.282
0.508,-0.789,1.184,-17.334,-8.789,-132.446
0.583,-0.831,1.175,-14.709,3.052,-138.916
0.621,-0.819,1.202,-12.756,9.216,-144.653
0.679,-0.782,1.246,-7.751,12.817,-153.076
0.682,-0.759,1.255,-5.371,10.254,-157.104
0.603,-0.697,1.286,3.967,-3.723,-157.288
0.566,-0.645,1.295,8.484,-12.695,-153.564
0.461,-0.652,1.260,18.799,-26.611,-153.076
0.369,-0.662,1.284,22.705,-26.367,-152.283
0.238,-0.622,1.304,29.602,-23.315,-147.644
0.178,-0.607,1.326,33.508,-17.700,-140.930
0.194,-0.555,1.381,40.222,-10.620,-130.737
0.243,-0.482,1.405,44.189,-5.310,-127.441
0.285,-0.421,1.428,54.321,9.583,-129.639
0.318,-0.347,1.449,61.707,12.329,-130.798
0.326,-0.335,1.463,68.909,14.954,-130.920
0.290,-0.315,1.488,84.656,16.663,-126.953
0.254,-0.341,1.471,92.285,14.526,-122.864
0.203,-0.392,1.398,106.689,16.479,-113.098
0.204,-0.421,1.363,112.122,25.391,-110.840
0.124,-0.430,1.277,115.601,52.307,-110.901
0.098,-0.413,1.225,115.173,65.369,-106.689
0.153,-0.328,1.162,115.051,81.238,-93.628
0.186,-0.306,1.153,114.563,84.839,-88.257
0.281,-0.203,1.178,115.540,89.233,-79.102
0.278,-0.186,1.211,115.845,86.853,-76.477
0.281,-0.166,1.205,117.615,84.534,-73.059
0.246,-0.142,1.218,123.901,85.510,-68.298
0.239,-0.141,1.217,125.122,87.219,-68.481
0.106,-0.229,1.138,131.287,92.773,-65.125
0.050,-0.260,1.091,128.967,96.680,-61.462
0.001,-0.241,1.007,121.338,109.070,-47.302
0.006,-0.213,0.971,118.835,117.188,-38.269
0.090,-0.140,0.958,112.610,127.441,-27.893
0.095,-0.127,0.966,111.267,132.080,-24.841
0.047,-0.099,0.959,109.680,134.949,-20.203
0.034,-0.104,0.957,110.352,133.972,-17.578
-0.015,-0.148,0.965,107.666,139.221,-12.939
-0.013,-0.139,0.975,104.614,143.677,-8.240
-0.005,-0.139,0.993,100.220,153.442,-2.563
0.000,-0.144,1.008,97.778,156.311,-0.854
-0.012,-0.133,0.985,96.008,156.433,4.639
-0.051,-0.113,0.986,92.590,153.198,14.160
-0.108,-0.106,0.971,91.064,151.917,19.043
-0.208,-0.069,0.956,88.379,146.912,27.527
-0.245,-0.032,0.974,84.473,145.874,29.053
-0.296,0.011,1.020,83.801,153.137,31.494
-0.345,0.027,1.056,83.008,161.011,34.241
-0.388,0.037,1.071,83.862,169.739,43.030
-0.410,0.041,1.052,83.557,170.532,46.387
-0.426,0.028,1.012,83.008,169.739,50.354
-0.491,0.001,0.913,81.787,166.382,62.927
-0.525,0.014,0.853,80.750,162.903,73.120
-0.455,0.031,0.766,74.097,154.114,89.478
-0.432,0.029,0.743,71.777,152.527,94.116
-0.380,0.043,0.745,65.186,154.846,93.323
-0.377,0.038,0.737,63.416,155.823,91.003
-0.424,0.000,0.714,60.364,154.236,91.736
-0.485,-0.000,0.633,49.316,137.512,103.821
-0.485,0.031,0.595,44.739,127.686,107.727
-0.500,0.006,0.490,35.645,111.816,108.948
-0.523,-0.002,0.437,29.663,106.506,108.521
-0.478,0.023,0.395,15.808,102.051,111.450
-0.448,0.051,0.400,9.644,103.516,108.887
-0.438,0.075,0.414,3.479,110.474,102.661
-0.468,0.055,0.421,0.366,111.694,102.112
-0.493,0.044,0.426,-2.991,107.239,109.009
-0.446,0.079,0.402,-7.385,84.778,119.751
-0.336,0.042,0.344,-9.888,72.571,118.652
-0.405,0.017,0.348,-22.461,62.256,110.413
-0.403,0.035,0.345,-24.841,58.899,116.272
-0.365,0.053,0.306,-35.217,50.232,120.300
-0.309,0.074,0.299,-39.978,46.082,119.751
-0.276,0.099,0.312,-50.537,45.471,119.141
-0.240,0.148,0.389,-54.138,49.011,117.249
-0.253,0.177,0.438,-58.167,52.734,115.601
-0.238,0.158,0.522,-63.843,54.810,115.662
-0.231,0.130,0.526,-64.941,52.856,116.211
-0.208,0.084,0.532,-72.510,48.157,118.469
-0.193,0.067,0.531,-75.256,46.082,120.544
-0.134,0.019,0.493,-82.336,43.396,121.704
-0.116,0.014,0.486,-87.158,44.250,120.300
-0.046,0.096,0.554,-96.252,49.561,113.892
-0.017,0.127,0.604,-98.145,50.781,107.788
-0.019,0.136,0.656,-101.318,48.096,94.482
-0.055,0.119,0.692,-100.647,43.945,91.736
-0.081,0.103,0.701,-101.318,37.537,92.407
-0.097,0.092,0.739,-101.868,22.827,103.149
-0.078,0.085,0.754,-101.807,17.090,105.530
-0.008,0.025,0.735,-101.685,9.094,106.201
0.016,0.001,0.744,-100.830,8.118,105.225
0.066,0.007,0.730,-102.417,4.517,104.187
0.125,0.038,0.762,-102.722,2.258,103.760
0.211,0.098,0.737,-102.173,-2.625,94.116
0.236,0.101,0.710,-102.051,-3.601,88.684
0.279,0.095,0.698,-104.614,-4.456,83.679
0.289,0.070,0.673,-108.521,-8.301,73.364
0.261,0.038,0.680,-110.535,-9.949,69.336
0.190,-0.008,0.693,-112.488,-13.000,63.293
0.162,-0.027,0.710,-113.708,-12.085,57.495
0.146,-0.040,0.764,-117.981,-5.981,49.377
0.150,-0.028,0.783,-121.033,-3.967,46.936
0.184,0.024,0.833,-120.056,-3.479,48.584
0.208,0.045,0.839,-122.070,-5.127,51.270
0.265,0.077,0.822,-120.728,-10.071,55.847

0.662,-0.698,1.182,-112.610,24.902,-100.647
0.715,-0.749,1.220,-113.037,31.738,-112.244
0.654,-0.783,1.336,-116.089,34.241,-130.981
0.693,-0.787,1.437,-115.540,27.283,-132.812
0.583,-0.807,1.661,-103.027,-4.333,-144.836
0.514,-0.779,1.725,-107.117,-29.968,-154.175
0.372,-0.676,1.879,-88.501,-25.696,-137.512
0.344,-0.648,1.865,-78.552,-27.344,-132.080
0.308,-0.622,1.847,-60.791,-26.123,-132.019
0.342,-0.607,1.775,-52.856,-22.644,-130.920
0.405,-0.625,1.630,-37.598,-5.798,-124.695
0.400,-0.657,1.556,-30.945,-1.221,-120.850
0.481,-0.660,1.370,-19.958,0.549,-107.361
0.518,-0.685,1.309,-18.555,-0.305,-103.882
0.581,-0.748,1.224,-15.686,-0.244,-103.699
0.601,-0.769,1.206,-13.977,1.709,-106.934
0.606,-0.808,1.238,-17.883,-1.038,-122.131
0.572,-0.783,1.270,-18.372,-0.366,-128.540
0.507,-0.766,1.326,-16.235,-4.211,-131.592
0.463,-0.731,1.352,-17.090,-3.357,-130.676
0.421,-0.724,1.370,-14.771,-2.441,-129.333
0.378,-0.668,1.369,-11.597,-0.244,-124.878
0.372,-0.651,1.349,-6.470,-3.662,-125.488
0.345,-0.615,1.291,0.732,-5.188,-128.418
0.314,-0.622,1.274,5.188,-7.446,-128.906
0.299,-0.638,1.215,11.353,-13.489,-124.023
0.277,-0.647,1.209,12.817,-13.977,-123.840
0.267,-0.615,1.191,13.916,-13.550,-118.896
0.259,-0.582,1.194,14.465,-14.648,-113.647
0.288,-0.479,1.197,17.029,-17.822,-114.685
0.276,-0.456,1.190,19.775,-19.592,-120.178
0.157,-0.351,1.250,23.193,-8.484,-119.568
0.158,-0.296,1.272,27.527,-1.465,-114.990
0.168,-0.298,1.297,37.659,14.038,-108.643
0.185,-0.292,1.311,44.128,21.912,-101.563
0.204,-0.291,1.340,50.720,28.564,-95.215
0.205,-0.315,1.333,64.087,42.603,-84.473
0.203,-0.330,1.303,70.068,49.561,-78.796
0.262,-0.309,1.239,76.721,61.096,-65.735
0.308,-0.303,1.208,81.177,65.369,-61.340
0.374,-0.246,1.170,86.731,72.815,-58.411
0.387,-0.219,1.145,89.722,74.158,-59.204
0.383,-0.219,1.146,92.407,76.843,-61.340
0.388,-0.256,1.113,93.933,80.200,-65.735
0.388,-0.253,1.112,94.849,82.825,-64.514
0.343,-0.300,1.118,93.994,83.984,-65.979
0.308,-0.310,1.129,91.858,83.923,-64.392
0.250,-0.330,1.064,84.106,83.923,-55.969
0.214,-0.325,1.060,79.712,84.167,-49.866
0.213,-0.279,1.060,74.524,85.754,-44.189
0.227,-0.213,1.072,71.045,89.355,-36.804
0.219,-0.186,1.074,70.190,92.102,-35.522
0.167,-0.128,1.081,71.472,93.872,-35.400
0.111,-0.129,1.082,75.317,93.567,-33.508
0.036,-0.163,1.063,79.712,95.459,-31.006
0.017,-0.169,1.056,80.750,101.868,-31.067
-0.031,-0.179,1.059,80.627,107.666,-30.884
-0.094,-0.180,1.053,79.834,112.915,-22.949
-0.101,-0.205,1.069,78.979,114.014,-16.418
-0.120,-0.184,1.091,73.853,115.723,-4.944
-0.151,-0.180,1.120,72.815,116.882,0.122
-0.219,-0.148,1.163,73.730,116.943,6.104
-0.250,-0.121,1.165,75.012,116.333,10.376
-0.336,-0.111,1.138,79.041,115.967,16.541
-0.388,-0.122,1.156,83.008,115.662,19.592
-0.443,-0.112,1.138,88.318,116.028,33.325
-0.467,-0.102,1.133,91.309,116.760,39.551
-0.482,-0.097,1.132,94.727,118.652,48.157
-0.505,-0.126,1.054,103.333,117.432,63.477
-0.504,-0.121,0.981,106.018,118.530,70.618
-0.519,-0.143,0.815,107.239,117.737,84.290
-0.528,-0.167,0.737,106.750,116.028,90.820
-0.538,-0.180,0.585,99.548,113.892,109.131
-0.527,-0.162,0.552,93.994,113.892,115.723
-0.496,-0.201,0.495,84.229,116.272,121.948
-0.478,-0.200,0.498,76.965,119.263,121.826
-0.490,-0.175,0.530,64.087,116.760,129.333
-0.434,-0.151,0.514,57.251,108.643,136.597
-0.339,-0.145,0.447,46.326,90.759,144.104
-0.333,-0.143,0.413,41.199,83.862,144.104
-0.338,-0.132,0.371,30.029,68.481,149.170
-0.314,-0.106,0.347,23.193,62.134,152.283
-0.277,-0.083,0.351,14.404,58.838,150.513
-0.240,-0.035,0.373,9.338,58.899,146.973
-0.262,-0.023,0.395,5.859,58.472,144.165
-0.261,-0.012,0.418,2.441,53.772,141.846
-0.244,-0.032,0.441,1.160,53.223,139.343
-0.167,-0.048,0.470,-3.235,53.711,135.010
-0.124,-0.052,0.480,-6.531,53.650,128.906
-0.021,-0.060,0.483,-13.000,44.861,125.488
0.014,-0.060,0.472,-16.663,35.400,124.695
0.044,-0.041,0.454,-24.292,17.273,120.361
-0.097,-0.051,0.439,-28.564,9.949,121.155
-0.169,-0.057,0.442,-32.898,6.287,127.563
-0.150,-0.004,0.478,-41.626,6.042,139.709
-0.080,0.003,0.516,-41.687,8.118,139.526
0.040,0.012,0.582,-45.410,23.865,129.517
0.096,-0.001,0.605,-45.593,28.381,125.000
0.212,-0.034,0.623,-47.546,28.198,115.356
0.233,-0.060,0.636,-49.255,21.423,109.680
0.279,-0.050,0.633,-56.274,5.920,100.952
0.288,-0.019,0.650,-59.387,0.000,96.375
0.271,-0.005,0.655,-61.340,-5.737,92.102
0.178,0.045,0.674,-66.223,-14.282,92.163
0.168,0.078,0.668,-67.200,-17.151,93.201
0.147,0.141,0.675,-70.313,-18.921,95.276
0.132,0.159,0.694,-70.251,-15.686,92.468
0.127,0.156,0.712,-70.435,-4.883,89.111
0.119,0.094,0.764,-70.251,-1.282,87.769
0.132,0.083,0.784,-68.970,3.784,84.167
0.179,0.063,0.822,-68.726,4.333,80.200
0.216,0.071,0.834,-67.932,1.587,75.684
0.261,0.078,0.822,-67.078,-3.662,70.740
0.277,0.097,0.781,-69.397,-15.320,65.491
0.295,0.140,0.771,-72.510,-18.799,63.354
0.263,0.179,0.789,-78.491,-23.560,55.786
0.202,0.168,0.810,-80.994,-25.635,53.833
0.167,0.167,0.818,-83.313,-32.043,60.547
0.139,0.162,0.843,-83.984,-34.180,66.101

0.565,-0.714,1.254,-117.432,28.076,-106.934
0.505,-0.824,1.284,-117.371,19.958,-113.220
0.371,-0.876,1.506,-126.038,15.747,-118.225
0.321,-0.829,1.654,-129.150,15.808,-119.324
0.266,-0.639,1.921,-124.878,18.005,-123.108
0.260,-0.511,2.016,-117.432,19.226,-123.352
0.219,-0.429,2.071,-94.971,25.330,-125.549
0.196,-0.426,1.974,-81.848,21.179,-123.230
0.161,-0.342,1.842,-47.241,32.532,-119.446
0.251,-0.562,1.644,-46.326,-11.536,-123.474
0.320,-0.671,1.404,-36.072,-16.174,-91.125
0.394,-0.757,1.283,-39.917,-13.916,-84.167
0.468,-0.791,1.157,-46.875,-11.902,-99.121
0.515,-0.807,1.105,-49.255,-7.996,-104.065
0.531,-0.795,1.083,-55.786,-4.456,-111.389
0.563,-0.746,1.118,-57.373,-5.920,-113.525
0.617,-0.723,1.150,-58.899,-10.010,-123.840
0.641,-0.777,1.196,-58.105,-11.536,-131.409
0.633,-0.816,1.178,-56.274,-14.648,-136.536
0.678,-0.858,1.218,-58.838,-20.935,-140.015
0.660,-0.910,1.339,-57.373,-35.400,-157.959
0.640,-0.943,1.398,-56.458,-41.382,-166.565
0.548,-0.915,1.489,-56.274,-50.354,-173.645
0.514,-0.895,1.556,-55.786,-57.007,-170.593
0.400,-0.808,1.642,-49.866,-71.411,-170.410
0.346,-0.800,1.641,-41.870,-72.510,-169.312
0.229,-0.783,1.593,-30.762,-67.505,-169.373
0.207,-0.769,1.564,-21.118,-63.721,-167.969
0.325,-0.829,1.421,-6.226,-53.528,-172.485
0.352,-0.808,1.363,-2.563,-45.471,-176.086
0.327,-0.792,1.343,2.930,-44.189,-183.044
0.299,-0.786,1.331,5.676,-46.997,-184.692
0.261,-0.753,1.308,8.911,-52.673,-179.443
0.221,-0.615,1.318,11.047,-53.894,-176.880
0.162,-0.536,1.345,14.099,-53.894,-177.246
0.001,-0.502,1.310,25.513,-49.011,-171.997
-0.029,-0.449,1.293,32.288,-41.626,-162.964
-0.005,-0.339,1.306,46.082,-17.273,-153.992
0.043,-0.328,1.311,54.810,-3.479,-153.198
0.112,-0.374,1.266,70.313,13.062,-153.015
0.145,-0.372,1.254,75.073,17.761,-146.790
0.260,-0.292,1.224,77.026,20.630,-134.338
0.316,-0.266,1.217,79.834,18.188,-129.761
0.306,-0.216,1.247,83.191,9.338,-117.981
0.298,-0.192,1.246,86.304,4.761,-110.718
0.278,-0.196,1.242,93.628,3.723,-102.234
0.156,-0.182,1.271,95.825,9.888,-97.595
0.081,-0.183,1.283,97.778,20.020,-92.651
0.061,-0.153,1.305,102.356,51.270,-80.566
0.084,-0.123,1.346,105.225,67.139,-74.158
0.158,-0.119,1.357,115.417,87.280,-63.232
0.245,-0.100,1.347,120.483,93.323,-58.228
0.326,-0.116,1.316,131.958,101.379,-50.476
0.330,-0.140,1.289,137.451,100.159,-47.546
0.309,-0.158,1.228,139.526,96.619,-45.471
0.248,-0.145,1.226,140.320,95.459,-44.250
0.182,-0.176,1.225,140.503,93.689,-41.443
0.097,-0.202,1.168,137.634,90.515,-27.527
0.074,-0.176,1.134,133.728,90.393,-17.395
0.101,-0.120,1.105,127.258,92.346,-5.920
0.108,-0.098,1.080,125.061,91.431,0.977
0.077,-0.075,1.047,123.474,89.355,13.489
0.033,-0.064,1.034,123.169,91.492,18.860
0.040,-0.084,1.031,122.192,93.872,28.320
0.070,-0.077,1.009,122.437,96.985,31.799
0.071,-0.092,1.009,122.192,98.633,31.555
0.041,-0.124,0.986,121.338,96.924,37.781
0.031,-0.134,0.969,119.629,96.008,40.527
0.018,-0.116,0.898,118.103,97.656,47.180
-0.017,-0.100,0.880,116.699,99.487,50.232
-0.079,-0.083,0.842,114.502,101.929,53.467
-0.107,-0.062,0.794,113.159,107.788,64.392
-0.125,-0.036,0.794,112.000,114.014,67.017
-0.212,-0.009,0.836,107.971,131.470,73.669
-0.245,0.007,0.864,106.506,137.329,79.102
-0.262,0.022,0.871,107.056,146.301,90.576
-0.234,-0.014,0.826,105.469,148.804,94.971
-0.195,-0.051,0.697,101.440,148.926,100.952
-0.148,-0.084,0.649,96.558,143.982,103.760
-0.124,-0.083,0.574,85.754,136.658,107.727
-0.124,-0.094,0.537,80.566,130.371,110.229
-0.143,-0.110,0.427,67.993,115.845,113.708
-0.193,-0.135,0.396,60.242,111.084,116.638
-0.263,-0.127,0.385,43.701,105.713,126.038
-0.260,-0.102,0.385,35.645,103.882,130.066
-0.234,-0.061,0.449,25.085,111.267,133.423
-0.224,-0.030,0.484,20.813,115.417,132.568
-0.143,-0.002,0.507,13.733,120.056,132.690
-0.081,0.013,0.513,12.512,121.155,131.714
-0.032,0.014,0.512,8.545,121.643,119.934
0.027,-0.032,0.468,5.981,119.324,114.746
0.042,-0.050,0.427,2.563,115.234,110.168
0.076,-0.078,0.379,-9.155,101.379,108.765
0.086,-0.065,0.382,-15.930,93.811,104.797
0.067,-0.036,0.437,-30.396,81.177,99.060
0.052,-0.020,0.476,-38.086,75.745,96.802
0.062,0.042,0.572,-47.302,69.458,94.360
0.046,0.054,0.626,-50.964,66.650,91.858
0.041,0.065,0.665,-52.063,62.561,93.323
0.062,0.079,0.712,-52.429,56.946,96.130
0.083,0.069,0.753,-50.903,55.725,94.116
0.140,0.092,0.775,-48.767,55.054,88.257
0.168,0.076,0.779,-47.668,53.528,83.313
0.211,0.066,0.757,-46.326,51.025,80.566
0.228,0.033,0.711,-48.706,43.152,71.899
0.212,0.046,0.695,-51.453,37.292,69.214
0.223,0.068,0.686,-56.458,24.353,67.566
0.228,0.065,0.690,-59.570,19.531,65.491
0.188,0.055,0.688,-61.768,15.686,61.707
0.096,0.050,0.739,-65.674,10.376,59.509
0.093,0.056,0.760,-67.078,10.376,60.974
0.112,0.062,0.767,-70.313,14.038,63.171
0.133,0.100,0.797,-70.007,17.151,61.584
0.151,0.095,0.788,-70.618,19.226,57.800
0.238,0.108,0.772,-73.547,26.794,56.885
0.284,0.119,0.781,-76.660,28.320,57.678
0.312,0.145,0.790,-76.904,27.283,54.077
0.362,0.161,0.789,-76.782,26.550,47.668
0.331,0.135,0.785,-77.148,26.184,40.222

0.596,-0.696,1.247,-58.167,-45.166,-121.948
0.628,-0.705,1.271,-58.716,-50.293,-124.268
0.700,-0.710,1.307,-58.105,-66.711,-129.395
0.680,-0.699,1.340,-53.833,-75.500,-126.404
0.543,-0.726,1.418,-50.903,-98.572,-125.366
0.454,-0.753,1.439,-46.570,-108.459,-125.610
0.314,-0.773,1.486,-40.100,-110.779,-119.507
0.315,-0.750,1.508,-38.574,-105.164,-116.089
0.465,-0.727,1.515,-34.729,-88.745,-115.417
0.508,-0.695,1.561,-28.687,-74.829,-117.188
0.609,-0.617,1.607,-17.578,-65.735,-127.136
0.641,-0.615,1.578,-5.676,-65.552,-133.362
0.592,-0.671,1.507,11.780,-67.749,-135.803
0.582,-0.711,1.446,18.860,-69.702,-132.263
0.575,-0.751,1.329,26.917,-74.402,-121.948
0.550,-0.773,1.291,27.344,-75.012,-118.103
0.519,-0.778,1.223,26.123,-71.777,-111.206
0.447,-0.721,1.242,25.085,-64.392,-105.103
0.411,-0.603,1.307,20.386,-50.171,-86.975
0.427,-0.532,1.352,23.560,-45.532,-81.177
0.494,-0.461,1.395,37.964,-34.119,-84.961
0.519,-0.440,1.359,47.302,-29.053,-92.163
0.496,-0.449,1.331,53.955,-23.682,-98.633
0.359,-0.467,1.307,65.735,-19.775,-99.731
0.302,-0.484,1.290,68.604,-21.423,-93.079
0.189,-0.486,1.217,75.989,-19.592,-74.951
0.136,-0.445,1.204,77.515,-11.108,-67.200
0.143,-0.328,1.226,93.933,14.526,-61.646
0.158,-0.335,1.101,106.506,28.442,-64.148
0.135,-0.273,1.097,106.384,62.988,-74.707
0.136,-0.227,1.112,104.431,78.491,-78.064
0.219,-0.195,1.129,113.525,95.764,-80.994
0.258,-0.205,1.163,118.713,105.103,-83.191
0.221,-0.224,1.185,122.437,111.694,-85.388
0.121,-0.269,1.152,124.451,114.380,-78.369
0.111,-0.240,1.123,122.314,115.662,-74.280
0.106,-0.215,1.106,115.784,121.094,-64.697
0.127,-0.190,1.076,111.816,121.765,-58.960
0.208,-0.110,1.098,101.807,117.554,-49.255
0.231,-0.080,1.109,97.656,113.098,-44.739
0.205,-0.018,1.133,93.079,103.821,-33.386
0.175,0.003,1.160,92.224,94.727,-36.377
0.090,-0.004,1.124,98.450,88.501,-36.438
0.053,-0.006,1.115,100.891,92.163,-34.119
0.021,0.004,1.087,101.013,104.065,-32.227
0.004,-0.016,1.071,99.304,108.032,-28.931
0.000,-0.043,1.054,97.961,110.046,-24.353
0.073,-0.016,1.033,92.590,108.643,-12.390
0.081,-0.008,1.013,90.698,101.440,-6.348
0.117,0.003,0.971,89.111,85.205,-1.404
0.079,0.001,0.949,85.693,79.834,-2.686
0.007,-0.013,0.943,82.581,78.247,-1.648
-0.118,0.040,0.977,75.867,76.904,9.155
-0.134,0.054,0.998,73.975,78.125,16.113
-0.161,0.080,1.029,75.745,88.989,22.827
-0.180,0.087,1.042,76.355,96.558,25.452
-0.168,0.080,1.051,77.271,102.234,30.151
-0.168,0.082,1.011,80.261,107.605,46.997
-0.166,0.086,0.976,82.275,105.408,50.293
-0.200,0.093,0.874,81.299,101.379,58.716
-0.214,0.070,0.830,81.421,99.243,64.270
-0.222,0.048,0.721,76.965,94.604,75.623
-0.206,0.044,0.696,72.266,91.919,80.933
-0.195,0.042,0.686,68.604,90.210,83.435
-0.201,0.026,0.680,61.584,92.712,83.069
-0.247,0.019,0.682,56.763,93.201,84.717
-0.242,0.010,0.665,50.049,92.896,92.773
-0.227,0.038,0.676,46.265,92.651,93.811
-0.200,0.069,0.695,42.786,91.797,95.276
-0.199,0.090,0.692,38.025,91.248,94.299
-0.203,0.085,0.678,36.560,91.003,92.896
-0.269,0.069,0.625,31.982,92.407,91.736
-0.330,0.067,0.625,28.259,89.539,95.520
-0.332,0.066,0.596,25.330,84.534,103.333
-0.287,0.072,0.539,19.287,81.482,110.657
-0.282,0.049,0.522,15.869,83.252,110.535
-0.268,0.027,0.498,7.507,82.947,115.540
-0.224,0.034,0.471,3.906,78.308,119.324
-0.180,0.029,0.447,-1.404,72.998,124.512
-0.107,0.040,0.411,-10.986,64.941,122.253
-0.064,0.035,0.418,-14.709,60.608,116.943
-0.058,0.004,0.433,-23.132,56.519,108.643
-0.037,0.011,0.446,-27.283,52.368,107.666
-0.004,0.014,0.483,-32.776,44.678,99.609
-0.032,0.014,0.503,-36.194,42.114,93.872
-0.081,-0.001,0.519,-39.490,35.156,92.468
-0.119,0.014,0.531,-42.847,31.067,98.389
-0.086,0.024,0.535,-44.434,28.015,103.271
-0.047,0.033,0.589,-48.584,33.875,100.647
-0.042,0.049,0.620,-49.866,35.706,96.741
-0.039,0.033,0.636,-52.307,33.386,96.619
-0.007,0.044,0.636,-53.162,30.640,98.389
0.045,0.064,0.663,-56.335,25.696,93.384
0.038,0.056,0.680,-55.298,23.560,88.318
0.047,0.051,0.666,-55.420,20.569,85.632
0.066,0.042,0.681,-60.974,15.747,75.439
0.086,0.047,0.682,-62.073,15.991,71.594
0.044,0.027,0.686,-66.284,14.893,59.387
0.030,0.023,0.702,-69.153,13.855,58.044
0.022,0.049,0.714,-72.571,10.925,57.190
0.030,0.057,0.729,-75.439,8.423,54.504
0.013,0.071,0.762,-76.050,11.658,50.354
0.020,0.071,0.781,-75.073,18.311,39.368
-0.059,0.056,0.818,-74.890,22.705,37.781
-0.093,0.048,0.837,-74.646,25.757,37.231
-0.038,0.034,0.842,-70.923,25.818,47.058
0.011,0.031,0.827,-67.505,21.484,53.162
0.159,0.042,0.766,-65.796,6.470,63.049
0.202,0.039,0.734,-64.880,1.526,67.017
0.200,0.034,0.723,-65.979,-2.930,66.284
0.196,0.010,0.756,-68.176,-16.663,65.857
0.189,0.016,0.755,-69.580,-23.926,67.200
0.167,0.004,0.774,-70.435,-32.898,71.472
0.165,-0.019,0.771,-70.496,-35.339,72.021
0.172,-0.029,0.759,-70.618,-34.363,71.472
0.167,-0.083,0.712,-69.824,-31.677,71.472
0.204,-0.120,0.713,-70.313,-29.663,71.045
0.283,-0.139,0.560,-78.613,-56.885,38.025
0.364,-0.144,0.555,-74.463,-28.748,50.842

0.548,-0.499,1.493,-162.109,36.438,-92.346
0.516,-0.465,1.561,-158.386,31.921,-89.966
0.483,-0.459,1.554,-150.391,19.714,-79.956
0.469,-0.468,1.521,-142.578,15.320,-74.646
0.471,-0.497,1.481,-131.836,4.272,-63.110
0.515,-0.582,1.366,-127.563,0.305,-60.608
0.530,-0.605,1.342,-129.272,1.465,-61.584
0.586,-0.646,1.390,-128.967,15.686,-70.435
0.623,-0.687,1.435,-125.732,20.264,-81.360
0.555,-0.707,1.611,-121.521,27.405,-107.361
0.514,-0.656,1.696,-115.967,28.015,-113.892
0.501,-0.585,1.776,-99.792,16.052,-111.816
0.497,-0.544,1.769,-93.811,5.493,-111.877
0.513,-0.537,1.706,-80.261,-10.254,-112.793
0.520,-0.566,1.629,-72.449,-18.982,-114.563
0.538,-0.647,1.494,-53.284,-9.766,-119.812
0.470,-0.738,1.399,-47.119,-28.503,-118.591
0.583,-0.773,1.200,-46.692,-52.551,-106.812
0.647,-0.793,1.157,-47.974,-45.837,-104.248
0.654,-0.835,1.083,-52.551,-38.696,-118.774
0.646,-0.832,1.073,-54.810,-34.058,-125.061
0.670,-0.786,1.120,-55.176,-28.870,-127.869
0.617,-0.819,1.162,-56.458,-28.931,-130.737
0.596,-0.724,1.191,-53.650,-41.565,-135.681
0.546,-0.784,1.226,-49.438,-52.368,-140.076
0.398,-0.887,1.249,-43.274,-62.927,-143.311
0.330,-0.892,1.297,-45.776,-60.791,-142.761
0.222,-0.839,1.407,-48.401,-51.147,-151.428
0.212,-0.818,1.421,-47.241,-43.213,-154.236
0.228,-0.781,1.472,-41.748,-30.762,-153.625
0.267,-0.759,1.472,-36.743,-27.100,-148.193
0.341,-0.725,1.477,-26.550,-25.208,-139.587
0.367,-0.701,1.476,-20.630,-23.743,-140.381
0.346,-0.708,1.455,-3.906,-24.170,-137.451
0.348,-0.727,1.397,1.770,-28.931,-138.000
0.281,-0.783,1.330,13.611,-38.391,-138.062
0.241,-0.814,1.305,15.503,-41.626,-137.451
0.182,-0.794,1.305,15.442,-39.795,-137.329
0.147,-0.749,1.322,14.771,-36.377,-134.766
0.125,-0.657,1.385,17.090,-20.996,-131.470
0.116,-0.602,1.376,23.560,-13.367,-133.301
0.217,-0.586,1.358,33.752,3.784,-136.169
0.240,-0.554,1.365,38.757,9.277,-134.277
0.263,-0.498,1.372,51.453,15.869,-123.230
0.265,-0.475,1.394,57.007,15.015,-116.882
0.259,-0.455,1.394,67.505,15.808,-98.022
0.177,-0.374,1.408,73.242,17.334,-89.111
0.213,-0.345,1.425,81.482,18.738,-83.069
0.230,-0.359,1.301,100.708,29.358,-75.195
0.194,-0.398,1.241,106.384,39.490,-73.853
0.189,-0.367,1.101,104.431,57.129,-65.063
0.212,-0.338,1.135,100.220,65.002,-63.782
0.198,-0.299,1.057,102.417,84.839,-57.373
0.313,-0.020,1.263,104.309,92.651,-54.077
0.306,-0.045,1.213,126.831,84.534,-66.162
0.113,-0.407,0.935,131.897,77.698,-54.321
0.205,-0.177,0.930,119.690,79.407,-33.447
0.188,-0.061,0.967,108.032,90.149,-28.931
0.164,-0.084,0.884,111.694,90.637,-32.104
0.126,-0.088,0.826,105.835,99.304,-23.865
0.151,-0.043,0.777,100.037,99.609,-18.250
0.158,-0.026,0.744,88.623,96.497,-11.902
0.182,-0.006,0.753,82.764,95.764,-7.629
0.310,0.371,0.924,84.412,104.797,-26.245
0.058,-0.131,0.641,103.088,91.492,-36.804
0.117,-0.234,0.638,90.454,82.397,-15.625
0.160,0.142,0.912,63.660,100.830,-12.329
0.113,0.077,0.910,69.336,100.098,-13.611
0.033,0.093,1.014,65.979,111.267,-11.230
0.004,0.106,1.042,66.589,110.535,-3.540
0.015,0.107,1.067,67.871,108.887,3.601
-0.020,0.111,1.095,70.068,113.220,10.620
-0.053,0.114,1.116,71.350,114.868,15.503
-0.061,0.122,1.079,73.425,113.098,26.428
-0.102,0.131,1.052,73.242,109.985,32.166
-0.169,0.148,0.977,70.129,99.304,38.147
-0.192,0.175,0.937,69.275,95.154,39.917
-0.224,0.167,0.904,67.139,91.736,42.419
-0.330,0.184,0.908,62.378,97.778,45.349
-0.391,0.187,0.978,59.753,102.417,48.523
-0.443,0.189,1.119,57.983,108.826,61.890
-0.427,0.199,1.163,59.631,109.009,70.496
-0.392,0.197,1.154,61.829,107.422,79.041
-0.347,0.180,1.074,70.190,101.135,89.111
-0.367,0.145,1.038,72.083,95.276,93.567
-0.368,0.106,0.898,75.134,81.360,103.882
-0.364,0.091,0.858,73.364,76.294,107.422
-0.351,0.091,0.824,68.970,77.271,112.793
-0.377,0.055,0.776,65.918,79.224,113.953
-0.386,0.048,0.769,63.293,82.275,114.624
-0.366,0.027,0.739,55.664,88.318,112.732
-0.385,0.016,0.756,51.147,92.590,112.732
-0.317,0.010,0.828,43.701,96.680,112.000
-0.250,0.062,0.849,41.138,96.313,113.525
-0.169,0.088,0.869,41.992,96.130,117.371
-0.173,0.094,0.824,43.030,86.487,110.229
-0.217,0.082,0.770,42.603,77.759,110.107
-0.285,0.044,0.615,43.518,59.143,125.122
-0.290,0.033,0.545,42.297,54.993,130.005
-0.335,0.012,0.405,37.903,56.763,127.686
-0.362,0.003,0.381,33.142,63.660,126.099
-0.360,0.010,0.349,28.564,72.083,124.939
-0.298,0.004,0.315,16.846,92.041,119.019
-0.264,0.009,0.316,11.963,101.379,113.770
-0.229,-0.017,0.308,-1.526,109.436,102.051
-0.236,-0.044,0.309,-8.545,107.422,102.295
-0.192,-0.063,0.329,-22.400,91.797,110.168
-0.148,-0.054,0.352,-30.457,84.229,113.098
-0.088,-0.021,0.408,-44.556,70.374,117.859
-0.107,-0.015,0.452,-47.363,64.209,117.737
-0.123,0.013,0.472,-51.819,50.903,118.652
-0.135,0.001,0.496,-54.321,48.706,117.615
-0.118,0.011,0.518,-56.458,50.293,112.183
-0.132,0.002,0.548,-59.509,50.781,110.596
-0.131,0.001,0.540,-59.998,50.964,110.718
-0.080,0.010,0.570,-63.965,51.025,110.474
-0.032,0.013,0.619,-66.956,51.453,108.337
0.094,0.074,0.679,-69.336,56.030,99.731
0.110,0.078,0.717,-69.214,58.594,92.346

0.399,-0.545,1.590,-162.292,-19.409,-75.623
0.386,-0.515,1.653,-156.738,-20.996,-74.158
0.369,-0.465,1.658,-141.357,-23.315,-67.505
0.409,-0.468,1.579,-131.165,-25.024,-65.674
0.475,-0.560,1.368,-117.188,-23.560,-65.979
0.495,-0.607,1.206,-112.305,-23.254,-67.810
0.575,-0.690,1.003,-114.258,-18.372,-69.092
0.646,-0.705,0.968,-117.432,-14.343,-69.885
0.727,-0.732,1.030,-124.573,-4.822,-81.421
0.736,-0.742,1.110,-132.141,-0.183,-93.079
0.639,-0.755,1.262,-135.803,4.883,-114.014
0.562,-0.783,1.322,-140.198,2.930,-119.690
0.439,-0.812,1.481,-139.526,-7.019,-114.319
0.387,-0.840,1.495,-134.949,-14.038,-110.779
0.307,-0.833,1.559,-132.507,2.258,-110.657
0.287,-0.821,1.622,-127.563,9.766,-111.694
0.335,-0.747,1.783,-119.324,15.381,-121.338
0.230,-0.748,1.840,-113.831,23.254,-134.705
0.209,-0.682,1.890,-102.356,13.794,-153.442
0.165,-0.666,1.875,-95.642,10.925,-150.330
0.108,-0.657,1.806,-79.102,15.564,-127.869
0.076,-0.682,1.721,-70.557,8.057,-124.878
0.084,-0.703,1.534,-54.565,10.620,-115.112
0.130,-0.763,1.463,-56.091,13.367,-114.685
0.141,-0.787,1.396,-54.871,22.766,-108.704
0.184,-0.771,1.315,-55.176,24.353,-101.318
0.229,-0.769,1.295,-55.298,26.001,-97.534
0.301,-0.815,1.176,-50.354,25.757,-98.511
0.325,-0.842,1.141,-47.913,23.926,-99.426
0.434,-0.876,1.076,-47.791,16.724,-101.746
0.474,-0.877,1.050,-48.706,12.207,-102.905
0.483,-0.821,1.077,-47.791,6.470,-108.521
0.504,-0.826,1.057,-46.265,0.793,-117.188
0.439,-0.908,1.089,-41.016,-10.254,-129.517
0.371,-0.922,1.115,-40.100,-17.334,-132.019
0.279,-0.941,1.179,-39.490,-32.898,-140.442
0.241,-0.968,1.198,-38.757,-36.194,-146.118
0.242,-0.987,1.250,-41.626,-32.349,-146.484
0.284,-0.960,1.285,-43.213,-30.029,-141.907
0.429,-0.845,1.350,-39.063,-33.630,-142.822
0.495,-0.791,1.382,-35.889,-34.058,-147.766
0.512,-0.715,1.411,-23.132,-38.635,-164.307
0.493,-0.715,1.382,-12.878,-43.945,-170.898
0.476,-0.727,1.300,3.113,-64.697,-170.288
0.449,-0.718,1.260,11.780,-76.172,-168.579
0.414,-0.785,1.213,25.208,-88.501,-172.241
0.358,-0.812,1.167,31.616,-91.675,-175.110
0.292,-0.833,1.101,38.208,-89.478,-177.979
0.246,-0.837,1.107,41.931,-84.656,-176.208
0.169,-0.792,1.059,40.161,-66.772,-162.842
0.198,-0.708,1.060,37.292,-55.969,-153.442
0.160,-0.549,1.155,33.691,-43.762,-148.926
0.204,-0.429,1.215,42.419,-41.321,-144.348
0.167,-0.310,1.217,39.551,-25.024,-135.071
0.182,-0.196,1.303,40.833,-9.705,-139.832
0.012,-0.112,1.436,63.538,22.888,-147.095
-0.063,-0.113,1.465,79.773,39.673,-138.000
-0.038,-0.090,1.437,96.191,61.462,-125.671
0.077,-0.192,1.273,123.901,103.516,-100.098
0.177,-0.221,1.186,130.981,121.582,-85.327
0.342,-0.283,1.079,143.494,146.301,-68.115
0.430,-0.340,1.055,146.606,152.771,-62.500
0.511,-0.382,1.075,144.897,152.893,-54.016
0.512,-0.397,1.096,142.822,147.583,-52.551
0.456,-0.368,1.137,139.038,134.216,-48.340
0.405,-0.342,1.115,140.137,128.357,-49.316
0.261,-0.323,1.093,137.451,123.718,-50.293
0.181,-0.293,1.067,137.451,122.864,-44.861
0.160,-0.241,0.982,134.705,129.150,-39.490
0.086,-0.219,0.978,132.141,133.118,-35.156
0.038,-0.074,1.026,134.338,144.958,-27.039
0.004,-0.053,1.041,140.625,149.414,-26.611
-0.068,-0.044,1.094,146.606,160.278,-20.203
-0.103,-0.046,1.084,148.987,166.382,-15.198
-0.079,-0.049,1.045,148.743,172.363,0.244
-0.078,-0.060,1.010,144.836,170.288,11.597
-0.076,-0.059,0.904,134.216,156.860,20.020
-0.125,-0.030,0.858,127.625,150.269,24.780
-0.207,0.005,0.803,112.610,133.301,36.682
-0.297,0.013,0.788,103.882,126.709,39.429
-0.372,0.063,0.800,92.529,125.488,51.941
-0.422,0.150,0.883,89.966,130.554,60.364
-0.447,0.172,0.939,89.783,136.047,64.758
-0.464,0.188,1.008,94.604,151.001,78.369
-0.469,0.193,1.018,98.267,155.579,85.266
-0.456,0.202,0.923,107.849,164.917,99.182
-0.441,0.204,0.867,110.291,166.809,104.675
-0.427,0.187,0.801,109.192,168.091,115.723
-0.448,0.140,0.611,104.919,168.762,117.798
-0.469,0.115,0.555,100.464,170.959,120.178
-0.535,0.073,0.448,86.731,169.006,127.869
-0.511,0.042,0.435,78.125,170.776,129.883
-0.527,0.060,0.464,56.641,171.631,132.935
-0.524,0.088,0.465,43.945,168.274,136.658
-0.553,0.156,0.529,24.475,153.931,143.921
-0.571,0.170,0.590,21.423,146.179,149.231
-0.433,0.219,0.711,16.479,136.108,156.799
-0.369,0.243,0.780,17.639,139.160,155.518
-0.364,0.216,0.818,23.437,145.203,149.536
-0.386,0.177,0.787,27.100,144.897,148.315
-0.409,0.105,0.748,28.992,142.212,147.095
-0.388,0.029,0.656,26.367,143.677,145.630
-0.383,-0.012,0.614,22.705,147.461,141.724
-0.306,-0.053,0.531,13.062,154.602,138.245
-0.255,-0.058,0.484,5.920,156.982,133.911
-0.189,-0.072,0.472,-10.193,151.306,133.728
-0.216,0.018,0.400,-18.921,140.869,123.657
-0.087,0.025,0.432,-33.875,134.338,125.610
-0.039,0.089,0.461,-40.588,127.380,113.953
-0.115,0.119,0.556,-48.706,112.366,96.191
-0.185,0.122,0.537,-46.875,105.408,97.839
-0.402,0.082,0.524,-48.279,93.689,111.511
-0.381,0.082,0.504,-53.284,86.731,121.948
-0.235,0.087,0.461,-56.213,90.820,128.540
-0.191,0.088,0.440,-58.167,102.234,119.568
-0.159,0.051,0.454,-60.181,115.112,112.854
0.007,-0.032,0.374,-64.453,120.972,101.074
0.106,-0.064,0.333,-71.594,118.835,95.520
0.248,-0.098,0.324,-87.463,108.459,77.271

0.820,-0.546,1.182,-98.328,-28.564,-126.892
0.770,-0.588,1.201,-100.830,-22.034,-130.066
0.804,-0.472,1.268,-99.915,-20.447,-125.793
0.762,-0.572,1.227,-92.285,-24.719,-126.038
0.774,-0.617,1.182,-88.257,-27.466,-125.977
0.741,-0.716,1.223,-82.458,-31.860,-125.977
0.623,-0.750,1.302,-85.510,-21.667,-140.076
0.596,-0.719,1.419,-82.581,-17.395,-133.728
0.520,-0.718,1.512,-83.313,-3.845,-147.339
0.505,-0.554,1.641,-78.430,8.301,-150.269
0.554,-0.591,1.626,-61.951,29.663,-161.255
0.575,-0.559,1.672,-54.138,37.231,-160.522
0.575,-0.608,1.548,-28.564,32.410,-154.724
0.570,-0.627,1.476,-19.104,28.381,-149.841
0.550,-0.650,1.302,-6.226,19.958,-144.165
0.506,-0.679,1.222,-3.784,19.104,-146.179
0.447,-0.671,1.196,4.883,18.555,-142.395
0.432,-0.688,1.067,4.456,24.353,-145.264
0.435,-0.694,1.060,3.784,32.349,-146.301
0.430,-0.641,1.040,5.188,44.678,-149.414
0.465,-0.612,1.036,6.958,50.049,-149.292
0.506,-0.519,1.046,9.583,58.777,-153.748
0.518,-0.594,1.060,13.245,58.105,-151.123
0.546,-0.541,1.073,13.184,66.650,-148.560
0.591,-0.438,1.200,21.240,59.937,-142.578
0.617,-0.427,1.177,31.921,51.331,-139.832
0.543,-0.430,1.182,44.922,43.640,-135.559
0.478,-0.403,1.188,52.063,41.870,-131.348
0.376,-0.371,1.188,62.988,41.565,-125.366
0.300,-0.386,1.176,67.322,45.044,-121.948
0.227,-0.380,1.110,71.960,57.373,-118.652
0.219,-0.369,1.115,73.059,65.491,-117.065
0.194,-0.412,1.065,73.120,84.106,-112.183
0.071,-0.615,1.117,71.716,94.849,-105.896
0.321,-0.204,1.083,68.115,107.971,-93.201
0.268,-0.272,1.183,71.716,115.173,-96.191
0.227,-0.241,1.244,75.562,123.413,-95.520
0.218,-0.147,1.265,82.336,129.211,-77.026
0.157,-0.220,1.246,88.684,123.901,-68.604
0.213,-0.179,1.161,93.750,120.300,-48.889
0.250,-0.144,1.138,94.788,122.131,-43.274
0.241,-0.161,1.065,96.375,132.019,-35.889
0.257,-0.137,1.045,94.727,135.620,-29.907
0.258,-0.116,1.031,91.919,132.629,-21.423
0.226,-0.083,1.021,90.271,126.831,-22.888
0.187,-0.063,1.038,89.661,123.352,-26.367
0.114,-0.037,1.060,82.520,128.235,-35.950
0.035,-0.038,1.088,80.688,134.216,-40.710
-0.107,-0.059,1.129,70.984,151.428,-36.682
-0.143,-0.023,1.178,66.162,161.011,-26.611
-0.123,0.072,1.245,61.279,175.659,-9.399
-0.115,0.099,1.280,61.951,181.519,-0.427
-0.109,0.100,1.263,69.275,179.687,12.695
-0.125,0.093,1.248,71.289,173.401,18.372
-0.185,0.054,1.208,73.853,167.847,21.729
-0.218,0.011,1.166,75.439,158.386,30.090
-0.243,0.039,1.149,72.754,153.687,32.166
-0.320,0.063,1.141,69.275,142.822,39.734
-0.343,0.076,1.095,70.374,132.263,45.044
-0.430,0.042,0.989,70.190,109.985,51.575
-0.498,0.005,0.913,71.472,101.257,54.504
-0.555,-0.014,0.880,67.078,97.656,57.190
-0.614,0.053,0.863,56.641,102.783,64.087
-0.664,0.054,0.878,53.528,110.474,67.505
-0.707,0.057,0.898,48.279,127.136,76.050
-0.699,0.060,0.912,46.082,137.878,82.153
-0.683,0.072,0.933,41.016,153.564,94.421
-0.668,0.103,0.914,42.053,156.555,102.539
-0.637,0.115,0.893,40.710,160.950,108.154
-0.545,0.131,0.877,42.297,166.992,119.202
-0.510,0.131,0.841,40.405,168.762,118.713
-0.447,0.055,0.742,39.795,168.579,123.779
-0.432,0.001,0.679,36.255,168.030,120.728
-0.486,-0.073,0.579,24.536,160.278,119.202
-0.491,-0.091,0.545,18.188,151.550,125.305
-0.445,-0.106,0.450,4.089,136.658,135.437
-0.437,-0.105,0.424,0.793,127.869,137.817
-0.434,-0.121,0.331,-15.808,116.272,137.268
-0.406,-0.136,0.303,-21.606,110.901,137.817
-0.343,-0.176,0.269,-37.659,106.750,137.085
-0.328,-0.195,0.277,-47.119,106.812,133.484
-0.298,-0.262,0.277,-63.049,102.844,127.197
-0.242,-0.265,0.292,-71.045,98.999,130.676
-0.133,-0.229,0.340,-87.280,87.158,141.846
-0.070,-0.194,0.369,-93.933,79.102,139.587
-0.063,-0.150,0.428,-102.661,63.416,130.188
-0.068,-0.142,0.468,-104.126,55.176,127.014
-0.076,-0.066,0.551,-105.347,39.307,122.375
-0.090,-0.065,0.583,-104.553,31.433,123.108
-0.148,-0.086,0.578,-100.647,13.611,122.864
-0.160,-0.068,0.587,-100.098,6.653,124.634
-0.182,-0.060,0.565,-95.886,-4.150,124.573
-0.204,-0.069,0.554,-94.727,-7.141,123.962
-0.187,-0.042,0.555,-96.619,-5.432,120.056
-0.084,-0.017,0.583,-95.459,-3.479,116.882
-0.058,-0.008,0.591,-95.337,-3.967,108.887
0.032,0.011,0.572,-94.482,-7.263,106.384
0.074,0.004,0.566,-94.788,-10.803,104.248
0.085,-0.018,0.547,-96.741,-19.775,95.093
0.096,-0.025,0.559,-99.426,-24.170,92.163
0.112,-0.040,0.592,-105.286,-30.090,83.313
0.089,-0.028,0.634,-106.995,-34.302,77.820
0.040,-0.033,0.674,-110.901,-48.889,73.120
-0.016,0.004,0.718,-111.816,-52.795,72.510
-0.043,0.042,0.782,-107.117,-61.829,71.655
-0.094,0.060,0.828,-106.201,-62.439,67.261
-0.103,0.098,0.819,-99.121,-57.556,64.331
-0.105,0.088,0.813,-96.863,-53.284,62.683
0.002,0.073,0.772,-100.952,-47.485,62.500
0.071,0.052,0.771,-101.074,-43.091,60.364
0.130,0.022,0.765,-101.563,-39.246,56.519
0.126,-0.049,0.786,-102.966,-40.833,52.307
0.184,-0.053,0.823,-103.333,-48.218,55.481
0.137,-0.031,0.895,-101.746,-62.134,49.683
0.134,0.008,0.943,-100.708,-71.411,50.476
0.075,0.039,1.005,-93.628,-81.970,54.199
0.010,-0.006,0.982,-89.355,-86.548,55.115
-0.035,0.035,0.947,-87.524,-88.074,65.674
-0.036,0.017,0.941,-84.900,-83.252,67.932

0.600,-0.641,1.276,-147.766,-32.288,-96.924
0.547,-0.598,1.433,-151.001,-32.166,-103.577
0.506,-0.448,1.671,-145.752,-38.879,-107.666
0.515,-0.350,1.761,-139.832,-46.448,-104.126
0.526,-0.264,1.790,-118.469,-53.101,-101.013
0.501,-0.288,1.737,-107.178,-54.810,-99.060
0.461,-0.423,1.531,-85.815,-61.462,-86.609
0.490,-0.460,1.378,-80.750,-64.392,-80.750
0.519,-0.573,1.186,-76.782,-59.753,-79.956
0.512,-0.587,1.102,-78.247,-54.565,-81.482
0.583,-0.604,0.975,-86.243,-40.894,-85.083
0.615,-0.597,0.948,-92.102,-34.363,-88.562
0.666,-0.576,1.019,-99.670,-24.780,-100.891
0.681,-0.555,1.083,-102.783,-19.592,-107.178
0.705,-0.536,1.166,-103.943,-20.630,-112.854
0.691,-0.557,1.208,-103.210,-24.353,-114.868
0.639,-0.620,1.252,-98.450,-30.579,-114.868
0.641,-0.660,1.265,-96.802,-32.349,-112.427
0.700,-0.727,1.259,-92.712,-31.494,-113.098
0.747,-0.750,1.243,-91.492,-27.588,-115.234
0.903,-0.716,1.232,-91.248,-12.573,-122.131
0.982,-0.671,1.256,-90.149,-3.418,-129.517
1.005,-0.646,1.241,-83.252,7.690,-144.409
1.009,-0.681,1.207,-79.651,9.155,-148.254
1.051,-0.744,1.158,-75.928,8.057,-153.320
1.049,-0.756,1.164,-76.965,7.324,-158.691
1.000,-0.838,1.215,-74.280,1.160,-169.861
0.906,-0.878,1.269,-72.571,-1.160,-176.147
0.776,-0.866,1.369,-68.237,-5.127,-181.396
0.756,-0.832,1.408,-68.176,-5.615,-182.617
0.751,-0.811,1.459,-59.998,0.305,-187.988
0.794,-0.717,1.563,-54.382,3.906,-190.369
0.800,-0.693,1.562,-43.335,5.920,-195.984
0.722,-0.713,1.471,-23.926,4.211,-195.435
0.671,-0.734,1.415,-16.907,-0.366,-189.392
0.565,-0.717,1.315,-7.629,-7.385,-182.373
0.521,-0.692,1.301,-0.305,-5.493,-180.176
0.469,-0.660,1.273,5.127,-0.244,-178.406
0.384,-0.640,1.286,8.728,7.385,-179.504
0.265,-0.592,1.288,15.503,23.621,-170.715
0.269,-0.543,1.289,21.118,35.034,-164.185
0.282,-0.517,1.280,25.269,46.265,-161.011
0.371,-0.485,1.253,36.682,67.993,-152.039
0.410,-0.456,1.239,42.297,72.632,-147.156
0.454,-0.463,1.149,55.115,72.632,-135.620
0.498,-0.438,1.095,60.242,68.726,-130.615
0.414,-0.434,1.051,62.988,56.763,-127.136
0.370,-0.419,1.037,65.552,52.429,-124.512
0.301,-0.416,1.059,63.843,53.223,-121.216
0.242,-0.391,1.085,63.110,58.472,-120.728
0.250,-0.335,1.134,62.744,71.411,-110.535
0.260,-0.312,1.148,64.575,78.979,-108.032
0.266,-0.274,1.163,65.796,85.999,-106.079
0.274,-0.216,1.150,71.716,96.924,-92.896
0.302,-0.201,1.118,74.463,97.473,-86.975
0.308,-0.203,1.033,81.055,98.633,-79.773
0.318,-0.187,0.998,80.139,98.206,-76.599
0.260,-0.213,0.974,79.468,103.088,-74.463
0.226,-0.218,0.992,76.538,107.056,-74.097
0.183,-0.218,1.013,68.848,114.990,-67.383
0.154,-0.202,1.126,66.650,120.911,-62.866
0.129,-0.175,1.191,65.002,127.747,-58.777
0.103,-0.084,1.304,64.209,140.076,-50.415
0.116,-0.027,1.330,66.772,142.212,-43.823
0.070,0.025,1.337,77.576,144.348,-33.630
0.044,0.019,1.280,85.205,142.700,-26.672
0.032,-0.038,1.166,91.003,141.846,-19.714
0.019,-0.078,1.088,93.384,144.531,-17.151
0.026,-0.102,1.014,84.961,148.254,-13.245
0.021,-0.128,0.951,80.444,149.170,-10.559
0.042,-0.136,0.941,76.294,147.156,-8.301
0.033,-0.118,0.934,66.406,143.372,-2.747
0.027,-0.087,1.004,60.303,138.855,1.404
-0.012,-0.083,1.084,55.359,125.549,9.827
-0.041,-0.037,1.123,54.260,122.559,12.085
-0.110,0.055,1.207,55.359,115.173,19.592
-0.150,0.061,1.214,58.472,112.000,22.949
-0.205,0.057,1.197,60.791,108.948,28.870
-0.282,0.042,1.164,66.650,109.131,43.640
-0.351,0.036,1.127,70.740,110.962,49.255
-0.456,0.008,1.082,76.599,121.948,65.857
-0.463,0.006,1.036,77.698,126.465,74.036
-0.478,-0.031,0.939,78.125,142.517,85.938
-0.478,-0.052,0.891,79.834,149.902,92.468
-0.473,-0.071,0.849,78.308,155.579,99.670
-0.425,-0.102,0.737,73.975,163.879,113.892
-0.403,-0.091,0.683,69.397,167.725,118.408
-0.305,-0.111,0.544,57.373,166.992,129.272
-0.272,-0.124,0.481,50.476,161.560,134.033
-0.216,-0.167,0.394,33.630,148.926,137.512
-0.220,-0.169,0.390,23.682,140.503,138.184
-0.245,-0.136,0.399,6.165,121.826,143.250
-0.242,-0.122,0.428,-2.747,111.755,145.996
-0.279,-0.092,0.476,-16.235,96.924,147.278
-0.295,-0.056,0.483,-19.897,91.614,147.888
-0.264,0.014,0.579,-25.879,90.576,147.705
-0.302,0.018,0.636,-24.597,94.666,144.165
-0.322,-0.034,0.650,-22.095,98.572,142.029
-0.320,-0.044,0.669,-23.682,100.586,141.479
-0.251,-0.075,0.704,-24.780,100.281,137.512
-0.226,-0.053,0.733,-26.917,99.121,134.460
-0.243,-0.109,0.694,-30.090,85.205,135.681
-0.226,-0.120,0.670,-35.034,74.280,141.907
-0.187,-0.111,0.624,-38.696,55.481,148.682
-0.161,-0.081,0.559,-40.955,49.561,148.682
-0.160,-0.080,0.527,-45.776,38.818,156.067
-0.082,-0.051,0.458,-50.903,34.180,156.555
-0.063,-0.025,0.431,-52.429,32.166,153.137
-0.010,-0.002,0.394,-60.974,29.114,145.874
0.036,0.008,0.375,-64.087,28.442,142.151
0.164,-0.011,0.370,-72.449,21.118,131.287
0.216,-0.004,0.368,-75.500,18.127,123.840
0.240,-0.009,0.399,-83.679,8.179,108.521
0.198,-0.030,0.426,-87.463,3.235,101.318
0.147,-0.096,0.464,-93.201,-12.329,98.999
0.151,-0.088,0.504,-98.572,-19.531,98.328
0.148,-0.072,0.529,-105.835,-26.978,92.407
0.115,-0.028,0.608,-106.506,-27.893,87.708
0.079,-0.017,0.647,-107.544,-26.855,83.374

0.883,-0.616,1.061,-142.700,-19.653,-71.533
0.881,-0.565,1.177,-147.400,-21.851,-76.782
0.820,-0.395,1.358,-153.015,-34.424,-86.365
0.792,-0.302,1.436,-151.123,-42.786,-89.844
0.722,-0.243,1.472,-145.996,-56.458,-92.285
0.695,-0.262,1.426,-141.602,-56.396,-93.445
0.692,-0.339,1.262,-133.667,-59.875,-94.116
0.665,-0.401,1.183,-132.812,-60.059,-94.238
0.652,-0.464,1.098,-137.817,-58.777,-86.487
0.686,-0.487,1.056,-139.648,-58.228,-81.238
0.765,-0.454,1.019,-147.522,-52.734,-85.754
0.792,-0.445,1.015,-149.902,-49.133,-88.806
0.762,-0.503,1.167,-157.043,-45.837,-102.966
0.699,-0.510,1.306,-161.133,-44.250,-111.694
0.563,-0.461,1.508,-164.062,-40.649,-119.263
0.544,-0.456,1.549,-161.804,-40.649,-122.437
0.512,-0.428,1.656,-154.297,-32.410,-125.061
0.486,-0.425,1.668,-150.146,-27.649,-126.099
0.443,-0.454,1.626,-137.817,-20.752,-121.521
0.411,-0.470,1.573,-132.080,-18.311,-118.469
0.406,-0.548,1.471,-122.131,-7.812,-110.474
0.434,-0.615,1.396,-115.845,13.123,-105.713
0.486,-0.673,1.311,-115.295,22.827,-104.248
0.514,-0.689,1.260,-110.596,32.349,-105.286
0.632,-0.714,1.285,-107.727,34.180,-109.131
0.656,-0.729,1.313,-99.365,29.175,-121.948
0.821,-0.667,1.298,-91.003,38.818,-132.812
0.694,-0.690,1.339,-83.679,-3.052,-132.324
0.737,-0.693,1.369,-72.693,-0.061,-130.310
0.727,-0.699,1.325,-65.918,-6.042,-132.080
0.669,-0.750,1.212,-56.396,-18.127,-130.615
0.646,-0.770,1.162,-52.246,-22.217,-129.150
0.581,-0.828,1.121,-42.847,-21.973,-128.967
0.538,-0.880,1.091,-41.382,-20.142,-129.395
0.560,-0.901,1.051,-41.321,-9.277,-128.418
0.562,-0.882,1.099,-42.542,-3.174,-131.470
0.625,-0.834,1.198,-38.940,6.958,-136.169
0.720,-0.785,1.204,-37.415,12.146,-139.221
0.795,-0.729,1.257,-27.344,14.648,-147.400
0.850,-0.705,1.266,-21.240,11.414,-147.644
0.937,-0.676,1.259,-10.132,0.183,-148.865
0.921,-0.674,1.274,-3.479,-6.592,-147.644
0.816,-0.745,1.273,13.550,-25.146,-139.099
0.752,-0.759,1.258,18.127,-32.471,-130.554
0.599,-0.794,1.210,27.161,-41.260,-105.225
0.523,-0.744,1.210,29.297,-42.419,-92.346
0.609,-0.604,1.153,36.743,-38.269,-96.436
0.623,-0.568,1.141,39.490,-27.954,-106.873
0.525,-0.549,1.065,46.143,-14.709,-124.695
0.510,-0.512,1.041,49.805,-11.353,-126.648
0.462,-0.438,1.076,49.683,-2.563,-133.972
0.370,-0.404,1.119,53.894,3.235,-131.348
0.310,-0.396,1.148,59.204,6.531,-123.901
0.242,-0.346,1.165,69.580,23.437,-104.553
0.195,-0.361,1.184,73.181,36.926,-99.854
0.077,-0.377,1.196,82.642,65.002,-73.303
0.146,-0.323,1.165,87.219,75.500,-58.411
0.255,-0.276,1.085,96.985,95.520,-49.622
0.252,-0.252,1.108,96.191,104.248,-47.607
0.278,-0.181,1.087,98.022,109.497,-43.396
0.250,-0.189,1.044,104.980,110.046,-39.856
0.204,-0.262,1.030,107.300,110.291,-35.950
0.177,-0.239,0.944,101.013,115.723,-27.039
0.156,-0.231,0.957,95.581,120.300,-26.306
0.124,-0.186,0.987,90.088,131.104,-20.081
0.135,-0.156,1.014,87.524,137.817,-16.724
0.155,-0.134,1.038,88.013,145.325,-9.583
0.164,-0.134,1.045,88.013,148.865,-7.507
0.205,-0.086,1.051,91.797,152.039,0.610
0.229,-0.104,1.029,92.590,151.245,5.310
0.270,-0.125,1.013,93.201,148.437,10.010
0.235,-0.173,0.972,91.431,134.766,13.672
0.234,-0.176,0.948,89.905,127.991,13.062
0.222,-0.144,0.954,84.167,116.089,10.925
0.195,-0.146,0.979,82.458,110.962,9.277
0.179,-0.141,0.994,81.665,107.605,7.507
0.071,-0.108,1.012,78.674,106.323,5.615
0.039,-0.098,0.999,78.918,107.178,8.362
-0.034,-0.063,0.923,79.163,109.070,20.569
-0.068,-0.047,0.885,78.857,109.436,25.696
-0.124,-0.033,0.816,77.576,110.596,38.757
-0.141,-0.043,0.790,75.439,112.549,44.006
-0.144,-0.056,0.809,72.571,116.333,46.387
-0.122,-0.052,0.862,65.125,124.268,48.889
-0.107,-0.023,0.885,64.697,125.305,53.101
-0.106,-0.005,0.928,62.256,120.667,57.800
-0.133,-0.019,0.909,61.462,117.065,60.608
-0.176,-0.042,0.886,58.838,103.577,80.261
-0.162,-0.014,0.822,60.425,97.107,93.628
-0.216,-0.014,0.737,58.411,90.881,102.661
-0.250,-0.034,0.704,55.969,91.370,106.873
-0.287,-0.035,0.670,50.598,92.957,119.934
-0.293,-0.014,0.633,48.157,97.900,122.375
-0.235,-0.015,0.597,43.823,101.196,122.925
-0.141,-0.021,0.589,33.569,108.032,117.737
-0.076,0.003,0.636,32.043,103.760,119.812
-0.016,0.049,0.714,25.452,95.093,118.103
-0.020,0.050,0.714,25.757,86.548,121.643
-0.110,-0.025,0.654,17.395,66.956,121.521
-0.144,-0.021,0.631,15.198,57.556,130.432
-0.209,-0.004,0.646,7.019,46.509,144.287
-0.213,0.009,0.658,3.357,46.143,147.278
-0.215,0.027,0.687,3.601,49.866,146.790
-0.240,0.001,0.709,2.319,58.167,148.315
-0.211,0.005,0.717,4.028,59.692,151.550
-0.123,-0.052,0.648,5.676,62.134,156.006
-0.077,-0.067,0.600,3.113,62.622,155.273
-0.040,-0.067,0.559,0.977,62.866,155.518
0.018,-0.111,0.495,-8.972,63.110,149.963
0.039,-0.098,0.488,-15.686,61.829,145.203
0.045,-0.138,0.490,-32.471,57.556,128.540
0.047,-0.126,0.517,-37.170,55.176,124.939
0.043,-0.068,0.607,-48.706,50.293,121.338
0.005,-0.061,0.675,-52.917,48.340,120.056
-0.070,-0.070,0.737,-54.138,37.231,124.451
-0.099,-0.056,0.745,-55.603,32.837,127.930
-0.118,-0.087,0.740,-55.481,33.142,127.930
-0.125,-0.073,0.753,-55.115,36.011,124.634
-0.141,-0.094,0.779,-57.617,42.175,120.972

0.821,-0.679,1.053,-190.918,-21.729,-87.158
0.828,-0.713,1.198,-193.359,-14.404,-94.482
0.762,-0.762,1.513,-194.031,-5.188,-120.667
0.698,-0.802,1.668,-192.322,-3.967,-127.930
0.616,-0.739,1.877,-181.824,-6.165,-125.488
0.591,-0.712,1.907,-174.622,-8.179,-121.460
0.587,-0.756,1.856,-156.006,-11.292,-117.371
0.599,-0.783,1.793,-147.827,-9.155,-117.065
0.584,-0.870,1.641,-135.193,-1.770,-117.737
0.612,-0.906,1.585,-131.165,1.343,-116.272
0.715,-1.017,1.722,-123.901,19.897,-130.920
0.628,-0.876,1.858,-129.028,8.240,-155.029
0.445,-0.789,2.010,-110.229,11.169,-150.574
0.387,-0.785,2.028,-100.342,3.845,-141.174
0.282,-0.765,1.889,-81.238,-12.146,-139.160
0.247,-0.823,1.793,-74.646,-14.526,-134.949
0.189,-0.882,1.640,-64.270,-8.362,-127.869
0.186,-0.894,1.576,-62.988,-0.916,-123.779
0.221,-0.916,1.476,-61.890,12.390,-115.356
0.221,-0.892,1.426,-60.425,21.484,-113.770
0.280,-0.943,1.351,-55.542,31.921,-104.980
0.422,-0.898,1.255,-52.490,32.104,-104.065
0.567,-0.937,1.197,-45.166,23.987,-113.647
0.596,-1.001,1.166,-43.518,17.151,-114.685
0.597,-1.046,1.063,-44.556,-2.563,-111.145
0.619,-1.072,1.062,-44.189,-12.634,-110.046
0.604,-1.107,1.142,-43.396,-23.376,-112.671
0.515,-1.083,1.215,-45.105,-21.851,-114.929
0.536,-0.969,1.181,-38.208,-11.902,-118.774
0.415,-0.992,1.241,-34.607,-8.179,-122.253
0.557,-0.949,1.234,-21.790,-1.099,-127.136
0.570,-0.855,1.137,-14.099,-1.343,-136.841
0.690,-0.843,1.041,-4.150,-5.737,-151.001
0.658,-0.813,0.953,3.296,-10.437,-159.485
0.597,-0.811,0.955,7.385,-16.418,-160.767
0.614,-0.825,0.859,10.986,-16.113,-166.321
0.664,-0.768,0.852,13.672,-12.817,-165.344
0.588,-0.762,0.889,15.259,-6.775,-182.922
0.547,-0.774,0.921,15.259,-5.066,-184.631
0.528,-0.802,1.012,16.357,-2.747,-185.242
0.539,-0.700,1.049,18.677,-0.671,-183.289
0.360,-0.653,1.168,26.978,-6.165,-177.063
0.280,-0.621,1.172,34.180,-6.042,-172.607
0.104,-0.600,1.215,41.626,6.897,-161.743
0.061,-0.564,1.249,48.828,16.907,-156.311
0.032,-0.489,1.263,55.664,28.381,-151.855
0.013,-0.475,1.263,66.956,57.739,-133.179
0.047,-0.507,1.283,73.792,72.937,-125.427
0.125,-0.498,1.347,86.670,91.492,-113.831
0.173,-0.446,1.347,92.102,97.046,-103.943
0.273,-0.437,1.260,107.422,97.839,-91.309
0.249,-0.449,1.213,113.464,96.741,-90.210
0.228,-0.392,1.147,115.051,93.567,-76.782
0.237,-0.325,1.091,115.784,91.187,-67.322
0.198,-0.311,1.028,114.746,91.492,-55.115
0.158,-0.254,0.962,114.502,96.130,-51.758
0.158,-0.218,0.916,113.953,99.976,-51.758
0.137,-0.267,0.884,107.971,109.436,-53.467
0.114,-0.260,0.883,103.760,111.450,-51.697
0.121,-0.227,0.948,97.656,114.380,-45.044
0.116,-0.181,0.981,95.093,113.647,-40.527
0.091,-0.114,1.013,95.276,111.511,-30.334
0.081,-0.110,1.008,95.398,111.450,-25.818
0.039,-0.094,0.994,93.506,114.990,-15.625
0.021,-0.092,0.992,94.604,118.469,-8.423
0.038,-0.084,0.977,92.163,117.676,8.118
0.065,-0.118,0.955,91.736,115.417,13.916
0.054,-0.101,0.968,89.294,115.051,17.273
0.072,-0.086,0.984,86.731,112.854,22.278
0.071,-0.105,0.989,83.862,111.145,21.362
0.064,-0.082,1.061,79.956,111.328,22.827
0.055,-0.116,1.086,78.369,109.924,21.362
0.065,-0.081,1.049,78.003,108.215,25.452
-0.030,-0.115,0.986,76.660,101.807,30.396
-0.055,-0.094,0.963,74.402,101.074,37.903
-0.128,-0.021,1.072,69.397,103.455,45.959
-0.171,-0.002,1.140,69.031,106.201,46.814
-0.288,0.056,1.251,77.881,112.976,59.265
-0.320,0.052,1.256,85.144,114.563,69.336
-0.331,0.031,1.257,97.961,121.521,86.975
-0.329,0.017,1.148,102.356,125.610,95.215
-0.322,-0.011,1.050,107.361,127.808,103.149
-0.211,-0.046,0.877,108.521,131.348,116.028
-0.176,-0.032,0.795,106.445,132.690,117.371
-0.164,-0.103,0.700,97.107,133.423,116.211
-0.210,-0.094,0.655,91.003,132.019,113.953
-0.237,-0.055,0.705,75.256,125.488,120.178
-0.238,0.003,0.720,70.679,118.835,124.695
-0.236,0.078,0.788,62.927,115.051,124.512
-0.245,0.095,0.797,61.646,112.610,123.413
-0.285,0.058,0.727,61.890,107.666,128.967
-0.281,0.038,0.682,61.157,104.675,135.193
-0.262,-0.014,0.568,56.885,106.506,136.292
-0.253,-0.035,0.535,53.284,108.887,135.071
-0.224,-0.043,0.466,42.236,113.403,131.775
-0.214,-0.047,0.456,33.264,116.150,128.357
-0.195,-0.036,0.466,17.578,119.812,117.676
-0.186,0.006,0.522,10.864,118.652,114.075
-0.154,0.034,0.535,3.967,113.281,111.694
-0.136,0.069,0.563,-5.981,102.844,108.582
-0.157,0.077,0.571,-8.789,96.802,107.666
-0.180,0.055,0.506,-13.855,83.862,109.802
-0.184,0.034,0.487,-15.625,79.102,109.131
-0.176,0.013,0.411,-26.428,72.449,103.699
-0.153,0.000,0.387,-32.776,70.435,99.365
-0.135,-0.042,0.386,-46.692,71.106,90.393
-0.200,-0.057,0.416,-52.856,70.007,88.318
-0.215,-0.049,0.436,-57.983,63.904,94.177
-0.120,0.002,0.514,-67.810,51.025,107.300
-0.100,0.020,0.559,-70.007,49.988,105.591
-0.115,0.065,0.659,-72.144,46.997,100.098
-0.130,0.060,0.703,-70.190,46.143,99.365
-0.104,0.064,0.726,-70.618,38.391,101.379
-0.077,0.043,0.719,-67.627,34.851,101.013
-0.042,-0.015,0.677,-67.078,25.940,97.046
0.006,-0.017,0.655,-64.453,22.766,98.816
0.045,-0.015,0.643,-68.359,13.184,95.764
0.163,0.022,0.619,-68.054,10.071,88.257
0.204,0.004,0.609,-69.824,5.188,77.148

0.702,-0.436,1.410,-109.741,-1.892,-60.181
0.755,-0.472,1.399,-106.445,7.263,-65.491
0.763,-0.575,1.430,-102.844,18.250,-82.031
0.729,-0.575,1.457,-102.661,17.456,-86.670
0.693,-0.546,1.490,-97.839,9.399,-83.984
0.608,-0.499,1.557,-94.666,4.089,-80.688
0.566,-0.470,1.591,-91.187,0.122,-78.857
0.498,-0.477,1.588,-81.604,0.183,-77.881
0.462,-0.495,1.557,-77.026,5.127,-78.918
0.426,-0.604,1.501,-70.007,19.958,-78.979
0.442,-0.586,1.442,-70.190,17.090,-82.886
0.494,-0.646,1.301,-65.979,41.443,-80.505
0.527,-0.638,1.264,-68.115,50.659,-82.703
0.579,-0.634,1.204,-72.449,56.763,-92.163
0.607,-0.664,1.160,-74.585,59.509,-94.666
0.564,-0.640,1.130,-77.026,59.387,-94.299
0.553,-0.653,1.139,-79.834,50.049,-89.294
0.519,-0.611,1.208,-80.139,41.199,-85.327
0.381,-0.617,1.248,-79.346,28.015,-78.064
0.324,-0.688,1.244,-78.979,25.391,-70.435
0.242,-0.733,1.176,-81.421,17.883,-43.152
0.235,-0.749,1.162,-81.726,13.733,-32.532
0.235,-0.728,1.080,-82.031,18.982,-23.437
0.230,-0.752,1.083,-83.557,26.794,-25.391
0.250,-0.757,1.065,-82.581,38.208,-25.024
0.336,-0.757,1.020,-82.520,41.260,-20.630
0.396,-0.730,1.065,-82.581,40.344,-21.973
0.430,-0.761,1.093,-74.341,31.921,-37.354
0.450,-0.786,1.093,-73.792,27.527,-41.504
0.560,-0.759,1.068,-68.848,18.250,-48.645
0.576,-0.810,1.067,-65.735,11.658,-54.504
0.627,-0.926,0.954,-63.354,-1.099,-62.439
0.623,-0.949,0.979,-67.444,-3.845,-64.819
0.643,-0.855,0.990,-68.604,-16.479,-68.848
0.654,-0.836,1.006,-66.772,-22.339,-76.477
0.635,-0.812,0.968,-58.533,-22.827,-94.727
0.623,-0.794,0.931,-53.467,-20.264,-102.173
0.617,-0.817,0.829,-44.922,-18.860,-120.239
0.640,-0.861,0.782,-44.006,-14.832,-126.648
0.663,-0.841,0.780,-45.349,-11.108,-141.479
0.617,-0.850,0.811,-43.396,-16.418,-154.114
0.548,-0.844,0.934,-41.199,-22.705,-165.771
0.546,-0.831,0.971,-36.926,-24.902,-169.495
0.440,-0.835,1.050,-32.104,-20.996,-179.382
0.407,-0.840,1.067,-28.259,-18.311,-178.467
0.320,-0.820,1.157,-21.729,-9.155,-177.612
0.265,-0.764,1.204,-17.273,-3.113,-173.462
0.232,-0.660,1.315,-5.188,3.906,-164.734
0.200,-0.625,1.360,4.700,3.418,-160.278
0.157,-0.623,1.391,19.714,-1.038,-154.907
0.060,-0.544,1.385,39.490,-4.150,-147.339
0.016,-0.544,1.350,50.781,-1.343,-144.043
-0.033,-0.587,1.265,65.491,7.690,-133.789
-0.037,-0.564,1.233,70.740,14.832,-126.282
0.015,-0.556,1.193,80.811,28.931,-115.662
0.058,-0.556,1.162,85.144,37.964,-113.220
0.187,-0.549,1.132,87.830,50.659,-108.765
0.240,-0.543,1.130,90.515,51.208,-102.356
0.330,-0.477,1.117,92.102,43.274,-94.788
0.337,-0.463,1.120,94.299,36.926,-93.506
0.299,-0.432,1.143,92.834,33.508,-92.346
0.190,-0.331,1.195,97.107,21.912,-82.825
0.110,-0.325,1.202,104.248,17.883,-78.552
-0.032,-0.303,1.175,111.694,23.193,-68.237
-0.069,-0.282,1.140,113.220,30.823,-60.974
-0.042,-0.323,1.015,119.690,51.758,-41.443
0.037,-0.250,1.005,117.615,62.439,-30.090
0.173,-0.218,0.901,117.676,75.745,-26.123
0.235,-0.210,0.884,115.784,77.942,-27.222
0.293,-0.215,0.884,112.061,82.825,-27.893
0.340,-0.176,0.904,110.474,81.482,-26.733
0.313,-0.137,0.953,109.680,77.576,-26.917
0.184,-0.154,0.858,103.882,66.895,-10.681
0.150,-0.128,0.879,98.450,69.275,-10.376
0.075,-0.081,0.954,92.407,82.214,-7.629
0.072,-0.031,0.980,93.262,87.219,-2.747
0.107,0.008,1.018,97.534,98.572,3.906
0.121,0.008,1.013,100.830,104.370,6.531
0.142,0.009,1.014,100.830,108.582,8.484
0.187,0.027,0.988,101.257,109.131,13.428
0.202,0.021,0.966,100.281,106.262,14.893
0.189,0.008,0.939,93.384,98.938,18.005
0.145,0.031,0.925,90.515,95.276,18.616
0.128,0.041,0.946,87.219,90.759,19.592
0.071,0.060,1.014,83.435,81.604,20.508
0.044,0.069,1.032,82.581,76.843,23.315
0.025,0.075,1.062,84.106,74.585,26.672
-0.025,0.124,1.089,86.914,76.416,31.738
-0.062,0.144,1.094,87.708,75.806,36.499
-0.069,0.147,1.082,94.482,78.064,42.236
-0.139,0.135,1.049,95.703,81.238,44.678
-0.170,0.140,0.996,96.497,83.618,47.913
-0.179,0.095,0.917,97.961,88.562,59.387
-0.161,0.082,0.892,95.520,90.759,62.317
-0.148,0.067,0.862,90.637,90.942,65.552
-0.172,0.053,0.868,84.167,89.355,68.665
-0.149,0.099,0.880,79.041,85.327,73.364
-0.137,0.156,0.850,74.219,76.233,78.735
-0.184,0.163,0.839,72.876,72.205,80.383
-0.245,0.178,0.814,67.749,62.500,86.609
-0.334,0.178,0.750,67.078,58.472,92.590
-0.376,0.173,0.742,65.979,58.044,97.290
-0.436,0.162,0.702,61.829,63.477,100.525
-0.472,0.141,0.714,58.838,69.824,103.821
-0.475,0.137,0.763,55.664,86.914,108.032
-0.432,0.155,0.811,55.786,97.290,108.826
-0.415,0.135,0.838,56.763,108.521,106.323
-0.340,0.066,0.837,57.495,126.038,105.042
-0.292,0.084,0.820,59.387,132.629,107.910
-0.202,0.057,0.785,56.091,135.376,117.004
-0.158,0.041,0.764,56.885,134.766,117.493
-0.168,-0.031,0.718,52.917,131.714,102.661
-0.186,-0.046,0.726,48.767,129.272,101.685
-0.160,-0.064,0.660,42.297,119.080,108.521
-0.163,-0.065,0.645,37.476,114.441,111.145
-0.152,-0.052,0.628,28.870,108.521,110.474
-0.153,-0.048,0.608,25.574,108.337,106.018
-0.125,-0.042,0.608,18.127,109.802,99.976
-0.109,-0.049,0.560,13.672,107.849,99.792

0.674,-0.532,1.297,-137.024,4.333,-57.983
0.773,-0.527,1.359,-136.108,7.019,-65.857
0.784,-0.526,1.455,-137.390,-1.404,-95.886
0.652,-0.504,1.706,-133.301,-9.216,-108.093
0.590,-0.458,1.791,-120.178,-35.461,-112.305
0.389,-0.431,1.847,-111.328,-46.814,-106.812
0.347,-0.460,1.725,-97.107,-64.819,-85.938
0.360,-0.504,1.617,-91.553,-67.688,-79.468
0.392,-0.643,1.390,-90.759,-59.509,-76.843
0.395,-0.677,1.330,-94.604,-50.293,-73.792
0.429,-0.682,1.286,-102.722,-31.311,-68.420
0.558,-0.678,1.216,-110.046,-23.315,-71.533
0.715,-0.636,1.191,-119.263,-8.606,-77.087
0.789,-0.587,1.212,-122.253,-3.967,-80.627
0.864,-0.538,1.227,-123.291,-5.981,-97.229
0.834,-0.590,1.189,-122.009,-8.118,-105.835
0.788,-0.613,1.160,-120.544,-16.785,-122.437
0.749,-0.701,1.104,-119.751,-8.789,-129.761
0.567,-0.865,1.016,-121.643,-40.161,-137.451
0.515,-0.902,1.006,-120.667,-47.424,-128.052
0.454,-0.887,1.051,-124.573,-44.983,-118.530
0.423,-0.885,1.081,-124.878,-39.551,-119.385
0.403,-0.861,1.167,-127.869,-21.851,-120.911
0.423,-0.851,1.191,-127.014,-11.047,-120.789
0.479,-0.803,1.248,-122.437,7.629,-116.516
0.524,-0.742,1.305,-117.737,12.329,-113.342
0.519,-0.746,1.341,-98.572,13.916,-114.136
0.539,-0.740,1.323,-89.600,14.160,-115.601
0.537,-0.725,1.306,-76.660,16.357,-123.047
0.535,-0.776,1.258,-66.711,15.381,-126.221
0.542,-0.892,1.122,-51.208,13.977,-117.920
0.547,-0.934,1.063,-50.415,10.620,-110.107
0.594,-1.040,0.960,-42.358,-1.587,-98.267
0.645,-1.039,0.968,-43.213,-4.883,-94.055
0.711,-1.006,1.024,-42.542,-7.568,-100.708
0.739,-0.952,1.065,-40.771,-4.639,-108.887
0.753,-0.931,1.136,-32.593,2.625,-122.009
0.767,-0.852,1.233,-27.039,1.526,-128.052
0.718,-0.835,1.275,-18.921,-0.244,-132.751
0.735,-0.876,1.182,-0.610,-10.193,-131.287
0.704,-0.891,1.148,5.676,-11.597,-131.042
0.528,-0.892,1.166,14.099,-15.015,-135.681
0.456,-0.907,1.153,18.982,-16.052,-136.292
0.333,-0.890,1.141,27.588,-1.892,-137.329
0.283,-0.865,1.163,32.043,8.301,-137.390
0.231,-0.811,1.235,42.053,27.222,-138.245
0.264,-0.747,1.257,49.561,37.842,-136.047
0.363,-0.636,1.325,58.533,58.533,-142.639
0.367,-0.590,1.434,62.317,66.956,-148.560
0.325,-0.551,1.530,77.332,64.880,-154.480
0.192,-0.532,1.540,89.722,58.838,-145.142
0.080,-0.525,1.541,99.548,54.443,-135.559
-0.132,-0.565,1.413,121.826,53.101,-112.244
-0.207,-0.537,1.294,128.296,59.631,-93.628
-0.194,-0.421,1.209,131.470,84.656,-69.946
-0.173,-0.385,1.121,136.963,100.403,-63.843
-0.132,-0.352,0.923,138.977,124.939,-55.054
-0.026,-0.273,0.981,134.583,132.690,-49.194
0.064,-0.289,0.871,141.235,128.540,-49.744
0.075,-0.304,0.798,138.855,121.765,-47.119
0.139,-0.279,0.698,131.287,99.487,-29.663
0.163,-0.250,0.633,124.268,88.501,-24.963
0.081,-0.218,0.558,112.366,77.209,-22.888
0.010,-0.212,0.531,107.300,78.674,-21.851
-0.068,-0.208,0.527,91.736,91.431,-10.376
-0.074,-0.153,0.560,83.130,99.854,-2.014
-0.067,-0.121,0.609,76.721,108.398,5.066
0.046,-0.047,0.728,67.749,123.596,13.672
0.111,-0.045,0.789,66.467,124.023,16.235
0.235,-0.030,0.854,65.430,112.671,23.315
0.247,-0.056,0.877,63.782,106.506,23.315
0.195,-0.082,0.915,61.401,94.299,22.400
0.173,-0.081,0.949,59.631,90.698,25.146
0.175,-0.065,0.995,57.800,86.975,25.330
0.185,-0.080,1.052,60.364,84.045,24.048
0.171,-0.100,1.056,60.730,82.825,24.719
0.147,-0.092,1.027,63.232,77.515,31.372
0.117,-0.068,1.000,64.941,77.271,32.532
0.081,-0.052,0.983,65.308,77.942,34.912
0.039,-0.024,0.954,66.956,79.651,41.504
-0.000,-0.000,0.964,68.359,83.069,43.823
-0.123,0.016,1.012,70.374,89.233,47.852
-0.174,0.023,1.055,71.594,92.285,48.462
-0.213,0.049,1.105,72.510,98.877,50.842
-0.285,0.074,1.185,78.064,109.863,54.321
-0.264,0.091,1.179,82.214,113.953,57.983
-0.255,0.053,1.103,85.205,121.887,62.561
-0.299,0.016,1.057,84.961,121.399,67.566
-0.327,0.025,1.001,83.618,108.582,95.581
-0.340,0.035,0.908,82.214,101.013,104.248
-0.363,0.042,0.847,82.092,95.703,108.459
-0.431,0.020,0.755,75.378,90.210,117.188
-0.427,0.039,0.733,70.557,90.088,123.291
-0.370,0.066,0.733,61.035,91.125,124.390
-0.329,0.079,0.769,56.580,93.201,120.911
-0.287,0.109,0.792,50.964,94.727,112.244
-0.262,0.106,0.828,46.021,89.355,108.215
-0.330,0.111,0.809,44.495,81.848,105.774
-0.375,0.094,0.688,42.786,58.044,110.596
-0.417,0.076,0.636,41.565,47.607,117.310
-0.476,0.056,0.559,37.964,36.072,132.263
-0.482,0.025,0.514,37.170,37.048,135.071
-0.478,-0.022,0.483,31.494,51.819,139.465
-0.420,-0.034,0.455,29.053,63.721,140.869
-0.349,-0.034,0.461,26.733,73.669,140.015
-0.182,-0.048,0.434,21.667,86.487,130.554
-0.099,-0.055,0.423,18.311,90.149,122.925
0.006,-0.073,0.409,7.202,92.163,100.403
0.031,-0.098,0.384,3.723,91.187,89.966
0.004,-0.121,0.385,-5.432,81.665,74.402
-0.023,-0.132,0.407,-10.681,72.327,72.998
-0.032,-0.138,0.427,-14.709,60.730,76.538
-0.017,-0.062,0.482,-20.264,44.006,84.473
-0.024,-0.041,0.507,-21.973,40.894,82.764
-0.039,-0.059,0.564,-26.855,46.082,76.111
-0.074,-0.103,0.576,-28.809,49.194,76.294
-0.034,-0.079,0.577,-35.645,42.358,96.680
0.053,-0.045,0.571,-40.100,35.095,107.239
0.168,-0.006,0.611,-43.152,22.034,111.633

0.859,-0.485,1.221,-151.489,37.170,-53.894
0.865,-0.475,1.269,-152.161,37.354,-58.716
0.866,-0.468,1.357,-144.653,37.354,-69.580
0.807,-0.458,1.386,-139.526,34.485,-76.233
0.774,-0.449,1.326,-130.676,21.301,-77.026
0.745,-0.432,1.307,-128.296,18.066,-75.439
0.773,-0.428,1.311,-127.441,12.146,-78.796
0.696,-0.458,1.254,-126.648,20.874,-83.984
0.644,-0.492,1.252,-126.038,27.039,-84.412
0.577,-0.530,1.199,-124.512,27.710,-82.336
0.567,-0.579,1.157,-123.962,27.771,-79.590
0.550,-0.653,1.149,-123.962,29.907,-78.491
0.500,-0.649,1.171,-124.939,30.273,-82.214
0.405,-0.653,1.314,-125.610,31.555,-88.501
0.401,-0.662,1.451,-124.634,28.687,-98.511
0.176,-0.580,1.726,-124.451,33.875,-113.953
0.078,-0.490,1.841,-123.108,37.842,-107.056
0.060,-0.391,1.950,-109.375,39.185,-82.703
0.007,-0.363,1.930,-95.764,32.471,-76.111
-0.029,-0.488,1.750,-79.651,17.578,-76.050
0.036,-0.533,1.686,-74.402,29.602,-60.364
0.088,-0.630,1.521,-66.345,40.222,-53.894
0.124,-0.654,1.460,-62.805,39.673,-49.744
0.367,-0.689,1.334,-60.852,37.720,-37.476
0.474,-0.701,1.293,-59.753,38.086,-43.518
0.530,-0.734,1.242,-59.204,33.875,-60.364
0.640,-0.745,1.198,-56.824,25.269,-68.359
0.674,-0.775,1.198,-56.885,14.160,-75.928
0.704,-0.835,1.191,-54.138,-3.784,-84.167
0.723,-0.894,1.163,-53.650,-11.658,-88.989
0.773,-0.953,1.084,-56.641,-33.325,-98.450
0.781,-0.977,1.058,-59.692,-44.983,-101.990
0.821,-1.046,1.023,-68.054,-58.044,-106.445
0.852,-0.996,1.016,-74.463,-67.749,-108.948
0.818,-1.010,1.097,-77.332,-86.548,-125.977
0.777,-1.018,1.113,-77.576,-92.957,-133.423
0.703,-0.984,1.175,-76.355,-96.191,-150.574
0.691,-0.952,1.205,-74.341,-91.919,-158.630
0.575,-0.869,1.316,-65.552,-82.520,-178.040
0.438,-0.849,1.388,-60.364,-77.026,-184.326
0.284,-0.772,1.386,-42.603,-73.425,-181.946
0.321,-0.758,1.336,-31.494,-69.214,-176.758
0.406,-0.747,1.249,-15.076,-54.504,-187.195
0.370,-0.797,1.230,-8.240,-47.119,-193.665
0.419,-0.796,1.152,4.822,-39.185,-193.115
0.427,-0.767,1.159,7.629,-35.950,-198.242
0.295,-0.751,1.218,14.648,-34.973,-204.407
0.232,-0.719,1.239,21.362,-34.241,-203.857
0.091,-0.635,1.290,31.799,-26.367,-202.332
-0.016,-0.613,1.337,38.452,-17.822,-202.087
-0.130,-0.538,1.395,55.542,3.601,-187.683
-0.093,-0.451,1.398,64.758,18.005,-181.335
-0.065,-0.407,1.437,82.397,50.537,-181.396
-0.065,-0.393,1.459,91.309,65.918,-177.307
-0.053,-0.404,1.418,108.093,84.106,-160.767
-0.045,-0.417,1.396,115.784,91.675,-147.827
-0.001,-0.373,1.306,126.404,105.408,-120.544
-0.003,-0.358,1.263,132.446,113.403,-109.741
0.040,-0.280,1.180,138.733,124.939,-88.318
0.078,-0.253,1.153,141.052,129.333,-79.346
0.147,-0.210,1.057,147.705,132.019,-63.721
0.161,-0.197,1.018,148.254,133.118,-58.350
0.148,-0.209,0.962,147.949,135.437,-49.561
0.144,-0.187,0.970,146.240,136.841,-45.959
0.115,-0.242,0.962,139.771,138.550,-42.847
0.065,-0.260,0.973,131.897,139.465,-38.025
0.045,-0.211,1.011,117.981,144.470,-22.827
0.062,-0.148,1.061,110.718,150.391,-17.456
0.127,-0.068,1.132,101.990,156.372,-4.150
0.164,-0.040,1.139,99.182,155.396,2.075
0.191,-0.049,1.123,97.473,152.893,7.263
0.197,-0.045,1.050,89.600,143.860,18.127
0.210,-0.043,1.027,85.388,138.733,20.813
0.120,-0.023,1.028,80.383,134.644,22.400
0.042,-0.017,1.044,77.820,132.935,23.987
-0.012,-0.016,1.043,73.486,140.015,27.710
-0.096,0.011,1.117,71.777,144.653,30.396
-0.117,0.039,1.146,71.228,150.574,34.607
-0.177,0.052,1.150,71.106,164.795,42.358
-0.195,0.083,1.145,72.754,169.556,47.913
-0.233,0.096,1.097,73.608,170.227,57.251
-0.256,0.073,1.050,75.073,169.800,63.293
-0.301,0.066,1.005,74.097,167.114,75.623
-0.363,0.073,0.896,73.120,167.480,80.811
-0.402,0.064,0.860,71.289,167.419,80.811
-0.461,0.029,0.790,67.993,171.021,83.984
-0.480,0.016,0.775,66.162,172.607,86.731
-0.466,0.092,0.813,60.364,181.519,88.989
-0.398,0.121,0.816,63.477,187.927,89.478
-0.353,0.145,0.831,65.125,194.580,85.083
-0.405,0.079,0.743,71.228,208.862,67.261
-0.397,0.010,0.606,72.815,207.581,63.477
-0.430,-0.075,0.360,68.481,204.895,63.110
-0.463,-0.129,0.258,62.439,197.937,65.857
-0.450,-0.223,0.115,46.509,184.387,82.397
-0.391,-0.222,0.062,36.621,178.711,87.769
-0.297,-0.191,0.079,11.230,176.575,89.966
-0.258,-0.148,0.136,0.793,172.607,89.600
-0.208,-0.126,0.197,-8.484,164.429,89.478
-0.271,-0.110,0.354,-22.156,141.663,85.266
-0.254,-0.078,0.412,-26.001,126.160,86.975
-0.249,-0.041,0.506,-28.748,98.999,86.792
-0.270,-0.075,0.517,-27.100,90.576,82.703
-0.347,-0.179,0.444,-30.212,73.669,82.275
-0.348,-0.167,0.392,-34.180,62.927,90.881
-0.290,-0.130,0.334,-44.006,48.096,99.854
-0.237,-0.117,0.337,-48.767,43.701,98.572
-0.267,-0.093,0.337,-59.082,39.795,91.125
-0.258,-0.092,0.353,-64.819,35.461,91.858
-0.230,-0.080,0.336,-76.965,22.400,98.206
-0.237,-0.045,0.380,-83.374,15.320,101.624
-0.196,-0.020,0.409,-86.243,8.850,106.934
-0.106,0.084,0.496,-92.590,4.761,112.549
-0.088,0.109,0.526,-93.140,4.639,110.352
-0.065,0.079,0.526,-92.590,-0.183,105.896
-0.050,0.056,0.539,-94.604,-3.662,103.088
-0.036,0.023,0.589,-100.525,-6.226,101.379
-0.042,-0.004,0.621,-104.126,-8.301,101.990
-0.039,-0.019,0.695,-110.840,-17.090,104.980
