aX,aY,aZ,gX,gY,gZ
-0.409,-0.144,-1.957,-135.742,-87.708,22.522
-0.454,-0.261,-2.041,-149.292,-90.698,28.320
-0.553,-0.522,-2.275,-178.955,-89.355,42.114
-0.588,-0.662,-2.456,-196.228,-92.102,52.307
-0.548,-0.982,-2.850,-239.868,-116.089,82.581
-0.499,-1.218,-3.107,-270.264,-128.357,93.933
-0.306,-1.558,-3.431,-364.441,-153.748,118.103
-0.135,-1.672,-3.361,-428.345,-159.302,121.704
0.059,-2.008,-2.803,-565.674,-150.696,100.769
0.287,-2.364,-1.876,-691.345,-147.766,71.960
0.467,-2.574,-1.340,-747.803,-147.217,51.208
0.663,-3.018,-0.400,-836.975,-137.268,-6.958
0.816,-3.348,0.306,-859.924,-137.451,-35.645
0.906,-3.541,1.668,-887.939,-106.262,-28.015
1.132,-3.494,2.309,-863.770,-107.727,-20.630
1.319,-3.135,3.284,-762.024,-134.399,11.780
1.390,-2.987,3.859,-735.779,-183.716,38.086
1.435,-2.128,4.113,-624.023,-222.778,73.792
1.135,-2.280,3.905,-552.917,-180.725,66.589
0.933,-2.409,3.468,-459.839,-74.402,35.767
0.873,-2.044,3.528,-474.060,3.174,2.625
0.384,-0.854,4.147,-513.489,130.615,-49.744
0.355,-0.354,4.160,-465.271,137.207,-48.523
0.104,0.069,3.708,-348.572,176.331,-48.279
0.183,0.330,3.626,-271.851,77.454,-25.574
0.257,0.277,3.031,-185.730,-81.482,-27.832
0.167,0.359,2.861,-147.705,-100.098,-23.560
0.041,0.389,2.627,-88.745,-122.009,-12.573
-0.086,0.384,2.498,-66.040,-114.624,-15.930
-0.348,0.273,2.186,-34.668,-75.256,-25.208
-0.417,0.219,2.053,-23.926,-46.326,-23.193
-0.431,0.192,1.855,-15.869,-4.028,-16.724
-0.411,0.196,1.812,-7.019,1.953,-6.287
-0.323,0.184,1.707,4.761,-15.869,4.761
-0.132,0.175,1.388,17.578,-28.503,18.799
-0.097,0.189,1.309,20.752,-30.029,21.606
-0.031,0.148,1.109,16.541,-40.344,19.714
-0.035,0.168,1.068,11.719,-40.222,16.052
-0.052,0.176,1.054,-5.005,-37.476,6.042
-0.081,0.196,1.132,-9.644,-28.625,3.052
-0.123,0.203,1.188,-15.381,-21.973,-1.953
-0.142,0.213,1.286,-22.461,-12.573,-9.216
-0.125,0.218,1.307,-24.658,-5.676,-14.404
-0.169,0.227,1.411,-25.024,14.038,-18.127
-0.201,0.240,1.426,-23.254,13.184,-16.846
-0.236,0.236,1.387,-15.381,11.902,-8.423
-0.222,0.237,1.355,-9.033,9.827,-5.127
-0.217,0.224,1.318,-3.723,7.263,-1.099
-0.158,0.223,1.221,2.502,4.944,3.479
-0.116,0.231,1.192,5.188,5.432,5.798
-0.063,0.231,1.143,6.531,5.310,5.920
-0.002,0.221,1.088,8.179,7.874,2.014
0.011,0.212,1.050,8.179,7.263,0.305
0.032,0.205,1.025,8.911,5.432,-1.282
0.065,0.182,0.981,5.188,1.770,-0.427
0.074,0.189,0.976,2.808,0.488,-2.686
0.075,0.188,0.988,0.916,1.038,-4.883
0.070,0.202,0.990,-1.099,4.944,-11.414
0.028,0.201,0.985,-0.732,7.690,-14.404
0.009,0.199,0.977,-1.099,9.277,-14.709
-0.010,0.190,0.961,-1.831,8.667,-12.817
-0.014,0.185,0.959,-0.854,7.385,-12.939
-0.042,0.198,0.950,-1.587,8.301,-13.062
-0.056,0.198,0.938,-1.526,8.667,-13.733
-0.060,0.203,0.930,-0.183,8.301,-12.817
-0.064,0.210,0.896,-1.099,9.338,-11.902
-0.070,0.196,0.885,-1.587,8.850,-10.925
-0.081,0.189,0.869,-2.686,9.338,-11.475
-0.073,0.208,0.867,-4.944,9.155,-11.902
-0.083,0.206,0.873,-6.042,10.193,-11.780
-0.089,0.213,0.892,-10.132,7.446,-9.277
-0.088,0.213,0.896,-11.475,6.226,-8.362
-0.084,0.220,0.916,-11.902,4.150,-7.751
-0.096,0.226,0.923,-12.756,3.601,-8.240
-0.103,0.220,0.914,-11.597,1.709,-7.812
-0.105,0.221,0.925,-14.160,-0.488,-7.263
-0.112,0.230,0.934,-15.625,-1.343,-7.935
-0.134,0.224,0.948,-16.052,-1.221,-9.216
-0.139,0.224,0.953,-15.808,1.160,-10.559
-0.168,0.213,0.942,-19.043,4.639,-11.047
-0.160,0.205,0.948,-20.508,3.418,-9.155
-0.151,0.209,0.955,-22.461,1.404,-7.629
-0.141,0.223,0.971,-24.109,-1.526,-6.653
-0.133,0.237,0.992,-24.170,-2.075,-6.104
-0.124,0.244,1.032,-22.766,-0.122,-6.836
-0.130,0.239,1.041,-21.606,1.038,-7.690
-0.138,0.226,1.035,-19.775,2.014,-6.287
-0.121,0.226,1.050,-19.226,2.502,-4.639
-0.130,0.226,1.058,-18.921,0.793,-4.333
-0.130,0.232,1.056,-16.968,0.549,-4.761
-0.124,0.234,1.049,-15.259,-0.549,-4.272
-0.118,0.227,1.024,-11.292,-0.427,-4.089
-0.110,0.229,1.023,-9.888,0.305,-3.418
-0.111,0.232,1.014,-9.399,0.122,-5.005
-0.127,0.203,0.978,-10.010,0.854,-6.042
-0.126,0.191,0.961,-11.414,0.549,-5.981
-0.125,0.199,0.965,-16.541,0.122,-4.639
-0.126,0.223,1.001,-16.785,1.038,-4.028
-0.125,0.233,1.026,-17.639,0.549,-3.418
-0.114,0.221,1.024,-14.832,1.221,-3.052
-0.121,0.217,1.013,-14.343,-0.122,-3.418
-0.116,0.213,1.000,-13.428,-0.488,-2.808
-0.111,0.213,1.008,-14.526,-1.526,-2.197
-0.114,0.218,1.010,-13.000,-2.686,-3.174
-0.127,0.205,0.990,-14.404,-3.479,-3.418
-0.130,0.202,0.996,-15.137,-4.333,-2.563
-0.122,0.208,1.001,-14.221,-4.578,-1.648
-0.121,0.204,1.004,-15.625,-4.944,-3.296
-0.127,0.207,1.004,-14.343,-2.747,-4.211
-0.118,0.208,1.003,-17.029,-1.526,-5.066
-0.126,0.209,1.016,-16.663,-0.916,-5.676
-0.136,0.213,1.011,-16.907,-0.977,-6.348
-0.159,0.204,1.009,-16.479,-1.282,-6.409
-0.149,0.201,0.998,-16.113,-3.357,-3.296
-0.143,0.202,0.990,-16.602,-4.272,-1.465
-0.138,0.205,0.999,-17.029,-5.554,-1.282
-0.133,0.207,1.003,-16.174,-5.310,-2.197
-0.140,0.197,1.004,-16.235,-6.653,-2.625
-0.140,0.204,1.002,-16.724,-5.737,-2.808

0.241,-0.079,-2.213,-48.645,-74.402,44.739
0.257,-0.177,-2.331,-69.092,-71.899,38.269
0.301,-0.337,-2.547,-126.465,-64.697,22.522
0.331,-0.419,-2.586,-160.095,-63.782,12.451
0.342,-0.587,-2.539,-230.408,-66.895,-10.071
0.300,-0.669,-2.469,-263.184,-73.608,-17.151
0.209,-0.888,-2.372,-322.083,-96.924,-20.630
0.243,-0.977,-2.412,-350.952,-111.328,-19.287
0.372,-1.211,-2.422,-424.133,-137.634,-34.424
0.446,-1.334,-2.304,-468.323,-149.597,-40.466
0.542,-1.579,-1.927,-548.828,-168.701,-43.030
0.561,-1.605,-1.794,-581.177,-182.617,-39.368
0.735,-1.890,-1.382,-660.034,-191.711,-63.843
0.837,-2.291,-0.718,-737.183,-188.782,-101.563
0.872,-2.468,-0.353,-770.569,-183.167,-122.131
0.903,-2.780,0.451,-812.561,-158.691,-163.025
1.000,-2.890,0.916,-827.148,-143.555,-177.063
1.187,-3.124,2.214,-798.279,-168.213,-190.063
1.202,-3.115,2.785,-768.799,-202.026,-173.035
1.392,-2.653,4.035,-694.458,-292.236,-114.868
0.903,-2.545,4.431,-550.049,-325.867,-93.384
0.433,-2.492,4.190,-491.211,-307.922,-93.201
-0.369,-2.224,3.720,-443.848,-165.283,-77.759
-0.384,-1.846,3.744,-443.848,-81.238,-66.650
-0.515,-0.985,4.031,-427.368,135.254,-31.128
-0.367,-0.602,3.948,-365.601,60.486,-48.523
-0.096,-0.117,3.675,-268.494,36.072,-25.024
-0.022,-0.064,3.409,-203.552,4.150,-16.602
-0.062,-0.039,2.889,-112.671,-57.068,-14.526
-0.114,-0.025,2.732,-83.557,-68.787,-13.184
-0.239,-0.074,2.443,-34.485,-67.261,-9.644
-0.244,-0.107,2.311,-17.395,-60.364,-6.775
-0.393,-0.059,2.150,7.629,-66.650,-10.193
-0.381,-0.054,2.044,19.531,-66.833,-2.686
-0.324,-0.030,1.805,37.659,-45.532,7.568
-0.317,-0.037,1.672,41.016,-32.837,7.629
-0.292,-0.000,1.389,46.448,-14.526,8.057
-0.262,0.017,1.270,46.875,-9.827,8.301
-0.247,0.033,1.143,45.715,-4.639,5.981
-0.253,0.042,0.984,36.316,-5.554,2.747
-0.220,0.055,0.969,30.090,-9.766,-0.122
-0.192,0.071,0.944,16.357,-12.756,-4.883
-0.194,0.058,0.961,8.911,-9.094,-8.606
-0.230,0.052,0.999,2.441,-3.845,-12.878
-0.273,0.061,1.093,-8.972,5.676,-19.104
-0.303,0.060,1.125,-11.292,12.207,-19.836
-0.334,0.080,1.190,-15.747,16.907,-15.503
-0.332,0.087,1.188,-13.306,15.869,-13.245
-0.320,0.100,1.177,-9.888,15.259,-8.972
-0.293,0.113,1.153,-6.714,14.771,-5.798
-0.283,0.118,1.119,-3.540,14.587,-4.883
-0.229,0.100,1.077,-3.296,13.428,1.587
-0.179,0.105,1.060,-3.967,9.277,4.333
-0.136,0.120,1.058,-4.395,9.338,3.784
-0.103,0.124,1.051,-3.174,6.470,2.502
-0.082,0.110,1.037,-2.563,5.737,2.014
-0.066,0.119,1.017,-1.587,4.700,0.793
-0.042,0.114,1.001,-4.700,-0.122,-1.404
-0.051,0.116,1.006,-4.944,-1.221,-2.197
-0.077,0.115,0.998,-5.371,1.770,-6.592
-0.105,0.123,0.998,-6.042,4.639,-9.583
-0.134,0.123,0.998,-7.507,8.179,-12.085
-0.160,0.107,0.982,-7.507,11.719,-12.268
-0.169,0.115,0.978,-4.578,12.817,-10.925
-0.163,0.094,0.946,-6.714,12.329,-10.498
-0.165,0.110,0.953,-7.690,13.184,-10.010
-0.147,0.134,0.959,-7.812,10.986,-8.118
-0.153,0.135,0.964,-7.629,9.216,-9.338
-0.150,0.128,0.935,-6.592,7.324,-8.972
-0.193,0.115,0.862,-8.179,2.930,-7.751
-0.175,0.118,0.865,-12.451,-1.160,-4.333
-0.153,0.136,0.873,-15.930,-3.418,-2.869
-0.160,0.149,0.900,-19.043,-7.141,-6.531
-0.191,0.145,0.914,-19.653,-7.141,-7.324
-0.231,0.145,0.939,-21.667,-3.235,-9.766
-0.239,0.141,0.951,-22.034,1.770,-9.460
-0.240,0.142,0.994,-22.705,5.371,-8.667
-0.244,0.152,1.008,-22.156,5.737,-8.362
-0.248,0.155,1.021,-20.691,5.188,-8.545
-0.255,0.124,0.989,-18.921,2.075,-7.202
-0.252,0.129,0.973,-19.531,-1.831,-4.822
-0.203,0.129,0.987,-17.700,-8.118,-0.977
-0.199,0.141,1.000,-18.311,-10.437,-1.648
-0.198,0.141,1.020,-17.639,-9.521,-3.479
-0.206,0.134,1.016,-17.090,-9.155,-5.310
-0.205,0.126,1.018,-16.357,-8.179,-4.028
-0.206,0.138,1.018,-16.357,-6.470,-4.517
-0.205,0.148,1.018,-17.517,-5.127,-5.493
-0.227,0.130,1.018,-16.907,-2.869,-5.615
-0.234,0.116,1.011,-15.442,-2.563,-5.737
-0.223,0.125,1.015,-16.724,-4.333,-1.160
-0.212,0.125,1.017,-14.099,-4.150,-2.136
-0.201,0.141,1.019,-15.259,-4.211,-1.770
-0.192,0.136,1.003,-13.611,-4.150,-1.343
-0.187,0.128,0.986,-13.855,-3.540,-1.892
-0.180,0.126,0.977,-14.343,-3.418,-3.723
-0.171,0.124,0.980,-14.465,-4.272,-2.380
-0.178,0.130,0.977,-16.235,-5.371,-3.723
-0.186,0.128,0.981,-16.968,-7.507,-4.089
-0.185,0.120,0.990,-17.700,-8.972,-4.578
-0.191,0.122,0.992,-15.869,-9.399,-5.371
-0.191,0.120,0.999,-17.395,-10.132,-4.578
-0.187,0.109,0.999,-17.395,-10.071,-3.235
-0.180,0.111,1.001,-16.479,-9.521,-3.113
-0.177,0.114,1.008,-17.395,-8.179,-3.723
-0.175,0.113,1.009,-18.494,-9.521,-2.930
-0.171,0.119,1.011,-18.005,-8.728,-2.869
-0.178,0.115,1.010,-16.113,-7.385,-3.479
-0.181,0.111,1.022,-18.372,-7.629,-5.737
-0.188,0.106,1.013,-17.517,-7.263,-5.005
-0.198,0.109,1.008,-15.747,-6.714,-3.784
-0.190,0.108,1.000,-15.991,-8.362,-4.089
-0.193,0.104,1.005,-15.991,-7.568,-5.310
-0.193,0.101,1.015,-17.700,-7.141,-6.165
-0.223,0.118,1.031,-17.334,-6.348,-5.554
-0.224,0.112,1.039,-17.700,-6.531,-3.784
-0.216,0.100,1.012,-14.648,-6.470,-2.075
-0.207,0.099,1.016,-14.282,-5.493,-1.770
-0.195,0.097,1.002,-15.442,-3.723,-1.892

0.312,0.550,-1.708,-74.707,-47.852,4.150
0.320,0.504,-1.784,-87.830,-50.110,1.038
0.369,0.463,-1.918,-99.792,-55.908,-1.099
0.527,0.382,-2.335,-135.315,-93.506,-8.423
0.589,0.223,-2.514,-135.376,-108.582,-6.226
0.618,-0.019,-2.845,-187.317,-148.071,-11.780
0.620,-0.162,-2.911,-221.741,-169.983,-19.409
0.595,-0.345,-2.579,-307.861,-171.448,-46.753
0.562,-0.456,-2.106,-388.306,-123.718,-89.722
0.548,-0.474,-1.844,-419.678,-91.003,-118.164
0.352,-0.529,-1.214,-464.600,-43.335,-150.208
0.327,-0.601,-0.910,-480.225,-41.565,-153.809
0.378,-0.755,-0.371,-503.235,-57.556,-158.508
0.393,-0.806,-0.065,-510.437,-69.641,-161.499
0.300,-1.005,0.473,-506.897,-102.295,-163.635
0.333,-1.300,0.816,-493.835,-142.639,-144.592
0.480,-1.444,1.051,-493.103,-151.428,-137.329
0.719,-1.500,1.893,-495.056,-129.456,-146.179
0.640,-1.519,2.264,-482.849,-106.323,-160.889
0.306,-1.435,2.716,-445.190,-73.608,-182.312
0.232,-1.417,2.772,-421.021,-78.491,-176.208
0.254,-1.387,2.706,-370.300,-101.807,-159.607
0.208,-1.308,2.664,-355.652,-105.286,-160.583
-0.278,-1.075,2.661,-330.078,-113.708,-169.922
-0.643,-0.793,2.724,-301.208,-58.044,-150.208
-0.735,-0.667,2.634,-268.860,-107.178,-157.532
-0.903,-0.475,2.662,-241.028,-47.363,-134.399
-0.950,-0.368,2.702,-217.285,-34.973,-129.395
-1.175,-0.245,2.706,-179.321,-24.475,-109.802
-1.170,-0.277,2.645,-149.963,-37.659,-85.938
-0.882,-0.130,2.415,-98.694,-64.026,-30.334
-0.755,-0.079,2.298,-78.308,-76.233,-14.343
-0.531,0.021,2.009,-41.321,-87.341,0.305
-0.473,0.029,1.844,-27.832,-88.196,1.343
-0.401,0.008,1.508,-12.695,-85.815,-8.728
-0.412,0.036,1.396,-12.024,-72.754,-10.498
-0.519,0.030,1.237,-17.517,-47.302,-19.531
-0.595,0.047,1.196,-20.691,-38.635,-22.583
-0.634,0.060,1.188,-25.452,-30.212,-18.188
-0.615,0.082,1.188,-27.771,-30.090,-15.259
-0.583,0.070,1.156,-25.452,-30.701,-10.803
-0.562,0.076,1.138,-26.855,-29.358,-8.423
-0.516,0.073,1.126,-28.992,-26.733,-4.944
-0.515,0.070,1.134,-30.884,-21.912,-5.798
-0.491,0.075,1.151,-34.729,-11.047,-8.118
-0.486,0.058,1.182,-35.034,-7.935,-8.667
-0.497,0.043,1.189,-34.363,-6.775,-6.531
-0.501,0.047,1.220,-34.607,-6.836,-4.761
-0.500,0.065,1.237,-33.020,-7.263,-1.587
-0.463,0.078,1.247,-27.283,-5.432,2.747
-0.437,0.086,1.229,-24.475,-4.456,2.930
-0.391,0.098,1.194,-18.066,0.610,7.690
-0.345,0.101,1.178,-15.320,1.892,9.155
-0.312,0.094,1.153,-12.695,2.014,8.972
-0.254,0.089,1.087,-9.705,1.465,9.644
-0.245,0.082,1.061,-10.559,0.793,8.667
-0.235,0.088,1.045,-9.216,1.648,8.118
-0.238,0.083,1.031,-12.024,4.150,5.371
-0.242,0.084,1.036,-11.780,4.517,5.310
-0.212,0.096,1.045,-13.733,7.324,4.761
-0.213,0.099,1.036,-12.268,9.033,4.944
-0.207,0.105,1.011,-12.085,7.080,2.441
-0.202,0.106,1.006,-9.521,7.507,4.211
-0.196,0.102,1.002,-10.864,6.409,2.197
-0.208,0.100,0.996,-8.667,5.615,1.526
-0.243,0.080,0.960,-8.789,5.798,-1.099
-0.243,0.078,0.938,-8.240,7.202,-0.610
-0.252,0.083,0.912,-14.587,6.836,1.160
-0.219,0.103,0.915,-15.625,4.272,2.991
-0.206,0.100,0.920,-16.663,1.648,2.319
-0.199,0.117,0.926,-17.334,-4.150,0.488
-0.223,0.121,0.928,-14.709,-5.554,-0.549
-0.230,0.109,0.916,-14.404,-6.287,-1.831
-0.260,0.099,0.891,-15.930,-3.113,-4.395
-0.268,0.100,0.904,-18.555,-1.831,-4.944
-0.293,0.100,0.934,-19.653,-0.732,-6.470
-0.296,0.100,0.944,-18.921,-2.380,-5.188
-0.309,0.105,0.968,-17.456,-3.052,-3.357
-0.323,0.113,0.969,-15.747,-0.793,-3.357
-0.324,0.114,0.969,-15.686,-0.183,-3.723
-0.313,0.114,0.955,-14.282,0.610,-2.747
-0.326,0.097,0.949,-13.000,0.488,-1.831
-0.315,0.102,0.941,-14.771,-3.113,-1.221
-0.309,0.108,0.939,-14.709,-4.395,-0.122
-0.282,0.113,0.942,-16.724,-9.155,-1.343
-0.279,0.112,0.950,-14.709,-8.484,-0.671
-0.286,0.106,0.960,-15.015,-8.484,-1.099
-0.310,0.098,0.953,-15.564,-8.667,-2.625
-0.315,0.101,0.964,-17.761,-8.240,-2.441
-0.315,0.093,0.986,-19.592,-7.385,-2.563
-0.313,0.101,0.995,-18.066,-7.812,-2.380
-0.318,0.106,0.995,-14.832,-8.667,-1.770
-0.314,0.105,0.992,-14.587,-8.545,-1.892
-0.314,0.095,0.973,-15.076,-7.935,-1.221
-0.285,0.104,0.957,-16.174,-6.470,-0.488
-0.279,0.107,0.968,-15.564,-5.920,-1.587
-0.272,0.116,0.986,-15.564,-7.080,-2.441
-0.282,0.107,0.977,-16.174,-8.179,-3.235
-0.283,0.094,0.970,-15.381,-9.583,-2.502
-0.283,0.086,0.984,-16.235,-10.620,-2.380
-0.278,0.094,0.988,-17.822,-9.827,-3.906
-0.290,0.101,1.025,-17.639,-8.850,-3.906
-0.290,0.108,1.035,-17.334,-8.667,-4.272
-0.306,0.093,1.019,-15.076,-8.850,-3.235
-0.281,0.104,1.014,-14.099,-9.094,-1.404
-0.268,0.090,0.985,-14.038,-9.521,-1.587
-0.267,0.097,0.980,-11.902,-8.972,-1.709
-0.277,0.091,0.976,-14.709,-9.644,-2.502
-0.269,0.095,0.981,-15.991,-9.460,-2.869
-0.262,0.098,0.987,-17.090,-9.094,-2.441
-0.276,0.093,1.000,-15.869,-7.935,-3.784
-0.281,0.090,1.013,-13.489,-7.996,-3.845
-0.291,0.081,0.995,-15.808,-7.812,-5.005
-0.292,0.082,0.991,-16.418,-8.179,-2.991
-0.270,0.108,0.994,-17.029,-8.850,-1.038
-0.273,0.108,0.993,-17.029,-9.094,-1.709
-0.272,0.100,0.990,-16.968,-8.606,-3.174
-0.281,0.097,0.968,-16.174,-7.996,-3.113
-0.286,0.085,0.971,-16.418,-9.338,-2.686

0.491,0.087,-1.951,-247.742,-96.436,-55.786
0.517,0.017,-1.955,-269.958,-102.295,-61.890
0.548,-0.064,-1.866,-321.899,-101.501,-84.290
0.543,-0.277,-1.834,-343.872,-103.638,-93.323
0.506,-0.244,-1.593,-383.240,-118.896,-110.962
0.490,-0.280,-1.477,-405.518,-122.070,-115.784
0.540,-0.481,-1.202,-445.435,-119.690,-139.221
0.474,-0.715,-0.717,-489.014,-84.167,-177.490
0.384,-0.826,-0.437,-508.972,-67.932,-196.899
0.288,-1.000,0.273,-528.992,-64.819,-209.778
0.193,-1.029,0.636,-528.259,-70.251,-213.379
0.104,-0.983,1.116,-501.282,-117.310,-191.284
0.135,-0.992,1.262,-475.464,-145.569,-173.035
0.410,-1.174,1.279,-433.960,-174.438,-147.461
0.494,-1.275,1.292,-426.514,-173.035,-146.606
0.507,-1.773,1.355,-411.316,-156.128,-162.415
0.172,-2.079,1.600,-426.331,-106.262,-199.951
-0.071,-2.110,1.816,-434.998,-87.646,-207.397
-0.312,-2.017,2.200,-425.049,-76.050,-194.702
-0.382,-1.888,2.374,-416.687,-66.589,-187.195
-0.517,-1.517,2.628,-396.790,-40.405,-188.599
-0.854,-1.236,3.038,-374.756,-8.545,-174.316
-1.131,-0.911,3.192,-291.687,-124.756,-141.296
-1.180,-0.628,3.211,-213.135,-175.842,-77.698
-1.036,-0.308,3.049,-176.086,-168.091,-47.241
-0.781,-0.163,2.792,-117.310,-119.141,-10.559
-0.676,-0.102,2.604,-93.567,-85.144,-6.042
-0.576,-0.040,2.342,-52.612,-44.189,-0.732
-0.451,-0.003,2.208,-33.569,-37.292,4.333
-0.363,-0.025,1.876,-1.709,-39.185,4.028
-0.382,-0.057,1.708,8.850,-45.410,2.930
-0.396,-0.071,1.547,14.954,-50.049,2.563
-0.452,-0.068,1.322,15.869,-51.636,1.038
-0.476,-0.047,1.250,13.000,-49.377,0.793
-0.482,0.017,1.157,11.169,-52.368,2.441
-0.453,0.026,1.118,8.301,-53.284,4.089
-0.363,0.048,1.079,0.977,-33.752,1.343
-0.369,0.035,1.076,-5.676,-24.597,-2.258
-0.383,0.023,1.089,-11.963,-20.630,-5.371
-0.390,0.013,1.141,-22.217,-18.738,-10.498
-0.421,0.016,1.191,-25.452,-16.907,-13.184
-0.478,0.030,1.251,-27.405,-15.930,-12.573
-0.483,0.048,1.276,-27.222,-15.869,-11.475
-0.450,0.065,1.276,-23.010,-12.756,-7.690
-0.439,0.067,1.272,-20.386,-8.850,-7.141
-0.428,0.065,1.261,-17.395,2.563,-5.493
-0.407,0.060,1.244,-15.076,5.798,-2.686
-0.380,0.064,1.227,-13.062,6.409,-1.648
-0.349,0.059,1.191,-7.935,6.165,2.625
-0.324,0.064,1.172,-6.714,5.676,3.540
-0.274,0.058,1.124,-4.211,3.479,4.944
-0.251,0.061,1.105,-0.854,4.456,5.798
-0.244,0.058,1.080,-1.221,3.296,4.395
-0.222,0.061,1.054,-3.967,6.470,2.075
-0.226,0.062,1.052,-3.723,7.874,2.563
-0.221,0.064,1.049,-3.906,9.583,0.916
-0.218,0.065,1.034,-3.479,10.986,-0.977
-0.221,0.068,1.029,-3.113,11.047,-2.075
-0.223,0.071,1.022,-2.747,10.132,-2.502
-0.227,0.060,0.995,-2.258,8.240,-2.686
-0.253,0.058,0.982,-1.709,6.165,-2.441
-0.281,0.061,0.945,-2.197,3.479,-2.136
-0.272,0.068,0.945,-1.648,5.005,-1.648
-0.268,0.075,0.948,-2.380,6.104,-2.075
-0.249,0.073,0.931,-1.953,10.376,-2.563
-0.246,0.083,0.929,-3.113,11.414,-3.113
-0.238,0.092,0.926,-5.249,9.521,-2.930
-0.232,0.104,0.926,-5.676,6.897,-4.211
-0.252,0.094,0.928,-5.432,4.456,-4.211
-0.289,0.088,0.928,-5.310,2.686,-4.822
-0.292,0.092,0.925,-6.714,3.174,-4.761
-0.308,0.092,0.925,-8.545,2.686,-6.714
-0.315,0.095,0.929,-9.338,2.502,-5.737
-0.317,0.095,0.933,-10.193,1.648,-5.371
-0.313,0.091,0.934,-10.254,-0.977,-4.028
-0.321,0.095,0.935,-11.108,-0.366,-4.028
-0.316,0.108,0.940,-13.000,-0.122,-4.272
-0.305,0.101,0.939,-11.902,1.404,-4.822
-0.317,0.093,0.946,-12.939,0.488,-5.554
-0.345,0.097,0.952,-13.306,-2.380,-5.249
-0.352,0.097,0.969,-13.794,-4.395,-3.296
-0.323,0.100,0.961,-12.756,-7.751,-0.061
-0.316,0.105,0.959,-13.855,-8.911,0.183
-0.310,0.119,0.971,-12.695,-9.827,0.061
-0.300,0.111,0.959,-12.756,-10.315,-1.221
-0.303,0.115,0.962,-13.000,-8.667,-1.343
-0.311,0.108,0.950,-14.648,-4.211,-5.005
-0.316,0.095,0.967,-17.029,-3.113,-5.188
-0.319,0.094,0.978,-18.066,-3.357,-3.967
-0.314,0.107,0.988,-17.395,-5.371,-2.502
-0.310,0.101,0.992,-15.625,-7.141,-2.380
-0.299,0.094,0.985,-14.709,-8.057,-3.418
-0.284,0.104,0.969,-15.259,-7.263,-3.967
-0.276,0.110,0.960,-14.648,-5.798,-5.066
-0.282,0.115,0.962,-15.015,-4.272,-6.714
-0.282,0.107,0.972,-16.907,-4.150,-5.859
-0.286,0.111,0.972,-16.907,-4.578,-4.883
-0.292,0.098,0.975,-15.808,-5.371,-5.920
-0.309,0.097,0.976,-16.296,-7.629,-5.554
-0.320,0.093,0.994,-15.503,-8.240,-4.150
-0.315,0.096,0.996,-13.977,-9.216,-2.808
-0.307,0.092,1.003,-13.916,-10.193,-2.136
-0.271,0.105,1.004,-10.498,-7.263,-1.465
-0.271,0.101,0.995,-11.169,-6.287,-2.258
-0.272,0.097,0.996,-11.230,-5.005,-3.479
-0.255,0.097,0.976,-9.583,-4.028,-4.028
-0.255,0.089,0.971,-9.766,-3.296,-4.578
-0.273,0.092,0.947,-11.658,-5.127,-5.676
-0.291,0.082,0.954,-11.780,-6.775,-6.348
-0.306,0.096,0.960,-13.672,-8.118,-5.554
-0.306,0.091,0.975,-14.893,-8.240,-4.211
-0.303,0.090,0.974,-14.099,-8.301,-5.127
-0.298,0.084,0.985,-13.855,-9.644,-2.808
-0.300,0.079,0.988,-13.184,-9.460,-4.700
-0.318,0.085,0.991,-13.062,-8.423,-3.906
-0.310,0.086,0.989,-13.062,-6.897,-2.197
-0.290,0.091,0.975,-15.320,-5.615,-2.502
-0.283,0.095,0.980,-15.747,-5.188,-2.747
-0.294,0.094,0.982,-14.648,-6.348,-4.028

0.301,0.644,-1.660,-9.216,-49.561,27.100
0.327,0.581,-1.841,-18.799,-54.321,24.841
0.356,0.532,-2.009,-31.677,-60.364,22.705
0.375,0.418,-2.283,-72.388,-72.937,16.052
0.398,0.363,-2.397,-97.839,-81.604,12.695
0.483,0.210,-2.594,-156.860,-96.985,0.671
0.531,0.114,-2.679,-187.866,-91.431,-11.597
0.532,-0.099,-2.645,-259.766,-69.397,-49.438
0.508,-0.203,-2.509,-295.898,-64.270,-68.604
0.500,-0.362,-2.203,-356.750,-61.096,-98.022
0.482,-0.459,-2.036,-382.568,-64.880,-109.741
0.523,-0.664,-1.732,-431.091,-81.482,-131.836
0.577,-0.925,-1.341,-485.413,-100.342,-157.410
0.596,-1.151,-1.037,-511.841,-107.849,-162.109
0.493,-1.298,-0.316,-549.683,-125.427,-173.828
0.432,-1.367,0.046,-558.533,-133.728,-180.054
0.350,-1.519,0.622,-552.856,-171.448,-169.373
0.437,-1.611,0.997,-544.067,-199.097,-156.738
0.516,-1.913,1.766,-491.455,-238.831,-136.536
0.342,-2.104,2.139,-463.623,-238.281,-116.821
0.298,-2.141,2.362,-460.205,-211.975,-109.680
0.368,-2.228,2.790,-435.791,-125.305,-108.704
0.291,-2.039,3.062,-438.965,-69.336,-123.169
0.076,-1.336,3.500,-421.265,7.446,-137.329
0.066,-1.075,3.525,-383.423,10.193,-136.292
-0.114,-0.740,3.091,-304.565,-30.212,-130.310
-0.421,-0.535,3.189,-273.315,-36.255,-102.356
-0.410,-0.267,2.658,-192.566,-209.045,-78.064
-0.479,-0.206,2.527,-172.729,-200.012,-54.321
-0.806,-0.196,2.357,-137.939,-212.585,-51.147
-0.906,0.065,2.441,-123.352,-108.154,-25.330
-0.802,0.145,2.428,-109.192,-52.917,-18.921
-0.448,0.147,2.227,-71.411,4.700,-5.432
-0.254,0.149,2.072,-53.406,0.244,2.686
-0.111,0.154,1.951,-41.931,-10.193,8.057
-0.070,0.146,1.716,-19.043,-45.654,3.174
-0.096,0.125,1.598,-10.864,-57.739,-0.916
-0.202,0.092,1.397,-6.287,-60.913,-10.864
-0.285,0.092,1.350,-10.437,-58.289,-14.893
-0.393,0.135,1.324,-14.343,-51.270,-14.282
-0.430,0.165,1.322,-14.587,-45.410,-12.390
-0.418,0.187,1.274,-14.587,-23.621,-11.719
-0.384,0.188,1.270,-15.503,-12.390,-10.376
-0.329,0.159,1.247,-18.188,-2.747,-8.911
-0.303,0.158,1.240,-17.334,-1.953,-8.728
-0.299,0.157,1.235,-18.311,-7.629,-7.446
-0.307,0.151,1.251,-18.250,-10.864,-8.789
-0.313,0.146,1.256,-17.090,-14.221,-8.545
-0.353,0.143,1.233,-14.893,-21.729,-8.545
-0.343,0.179,1.224,-14.893,-20.691,-5.188
-0.313,0.182,1.203,-12.451,-11.230,-5.920
-0.331,0.176,1.176,-11.841,-3.967,-5.981
-0.323,0.154,1.147,-12.390,6.104,-3.235
-0.292,0.151,1.141,-13.245,5.310,-0.061
-0.263,0.143,1.146,-11.536,2.441,1.038
-0.192,0.144,1.122,-8.606,-3.357,4.944
-0.168,0.138,1.102,-7.385,-4.395,6.042
-0.120,0.142,1.075,-7.568,-3.601,3.967
-0.117,0.145,1.082,-9.766,-1.770,2.808
-0.108,0.138,1.072,-10.986,-0.305,3.662
-0.112,0.135,1.067,-7.935,4.150,0.305
-0.108,0.146,1.057,-7.690,8.057,-1.831
-0.116,0.138,1.044,-8.240,11.658,-5.127
-0.138,0.125,0.996,-8.240,14.771,-6.042
-0.136,0.119,0.982,-7.935,13.184,-4.761
-0.099,0.125,0.974,-9.155,5.127,-1.526
-0.100,0.135,0.968,-10.254,1.404,-1.770
-0.102,0.146,0.966,-9.094,0.244,-2.502
-0.125,0.152,0.954,-11.963,-3.235,-5.005
-0.134,0.145,0.943,-11.047,-2.197,-5.920
-0.169,0.130,0.950,-14.771,-1.770,-6.531
-0.162,0.136,0.962,-15.442,-3.174,-5.920
-0.166,0.136,0.970,-16.052,-4.639,-5.188
-0.178,0.131,0.969,-16.296,-4.028,-5.493
-0.176,0.152,0.956,-16.541,-2.319,-4.639
-0.185,0.151,0.937,-19.653,2.686,-6.042
-0.172,0.143,0.942,-19.104,3.906,-3.845
-0.152,0.151,0.948,-22.217,-0.977,-3.601
-0.154,0.140,0.961,-19.714,-2.014,-5.737
-0.156,0.146,0.970,-21.240,-7.385,-5.920
-0.168,0.127,0.972,-21.118,-10.437,-4.089
-0.177,0.120,0.971,-20.569,-11.780,-5.615
-0.203,0.142,0.986,-21.973,-7.935,-7.568
-0.213,0.158,1.004,-22.583,-4.150,-7.019
-0.227,0.165,0.986,-20.996,1.587,-10.132
-0.229,0.169,0.978,-19.165,3.235,-8.423
-0.233,0.152,0.944,-19.958,-0.610,-5.676
-0.223,0.132,0.951,-20.752,-2.808,-3.296
-0.239,0.140,0.951,-21.423,-7.690,-2.197
-0.222,0.143,0.987,-22.034,-15.625,1.404
-0.211,0.168,1.004,-21.301,-15.015,2.075
-0.207,0.156,1.022,-18.677,-13.977,0.366
-0.194,0.147,1.021,-19.409,-13.367,-0.244
-0.164,0.161,1.041,-19.775,-8.301,-0.610
-0.152,0.154,1.052,-20.813,-4.333,-1.343
-0.169,0.163,1.063,-21.240,-2.686,-3.052
-0.172,0.153,1.060,-19.165,0.671,-3.418
-0.163,0.146,1.064,-18.677,0.610,-3.723
-0.176,0.141,1.073,-18.005,-3.784,-2.380
-0.181,0.141,1.082,-15.686,-6.531,-2.747
-0.162,0.146,1.062,-14.587,-13.367,-1.221
-0.159,0.154,1.075,-13.794,-14.465,-1.587
-0.163,0.142,1.076,-12.451,-14.404,-1.343
-0.167,0.151,1.064,-11.597,-9.888,-0.366
-0.169,0.148,1.056,-11.841,-8.240,-1.709
-0.170,0.142,1.045,-11.047,-7.080,-2.258
-0.178,0.145,1.052,-10.254,-6.470,-1.404
-0.172,0.142,1.038,-11.780,-6.775,-1.343
-0.176,0.144,1.047,-10.925,-6.104,-1.343
-0.162,0.155,1.037,-9.521,-7.141,-1.282
-0.139,0.144,1.023,-8.606,-8.423,-1.404
-0.142,0.136,1.011,-12.085,-9.888,-1.526
-0.134,0.146,1.005,-11.536,-7.751,-3.113
-0.148,0.148,1.009,-12.512,-6.042,-3.235
-0.166,0.137,1.012,-12.817,-3.113,-5.005
-0.178,0.141,1.029,-13.123,-0.916,-5.859
-0.191,0.139,1.037,-15.198,-1.343,-6.287
-0.187,0.136,1.055,-12.329,-0.488,-3.418
-0.176,0.144,1.052,-12.207,-1.221,-3.540

0.347,0.543,-1.634,-28.076,-47.058,20.203
0.392,0.491,-1.700,-42.969,-50.049,15.442
0.432,0.453,-1.750,-75.684,-46.265,-0.488
0.475,0.353,-1.842,-91.309,-44.067,-7.812
0.521,0.291,-1.927,-104.614,-46.021,-13.916
0.625,0.127,-2.184,-133.179,-58.533,-29.358
0.650,0.026,-2.357,-153.564,-68.359,-40.344
0.744,-0.182,-2.725,-205.139,-106.140,-53.528
0.748,-0.291,-2.810,-272.461,-168.335,-63.293
0.634,-0.562,-2.692,-309.570,-202.759,-63.416
0.568,-0.776,-2.337,-380.737,-247.681,-61.340
0.571,-0.852,-2.091,-417.236,-238.281,-64.636
0.490,-0.953,-1.462,-488.525,-145.447,-108.948
0.423,-0.985,-1.191,-516.846,-98.145,-137.329
0.255,-1.135,-0.681,-546.814,-50.354,-172.180
0.149,-1.202,-0.441,-561.096,-58.716,-173.767
0.177,-1.219,-0.047,-566.406,-80.750,-162.964
0.395,-1.275,0.328,-571.838,-128.052,-149.170
0.491,-1.427,0.589,-569.092,-148.254,-149.414
0.524,-1.919,1.590,-537.476,-186.707,-146.851
0.490,-1.999,2.063,-515.808,-209.045,-136.841
0.285,-2.009,2.472,-482.605,-246.643,-108.032
0.076,-2.085,2.395,-460.022,-233.704,-105.469
-0.122,-2.372,2.134,-443.176,-150.574,-102.966
-0.001,-2.344,2.376,-461.792,-49.072,-113.953
-0.011,-2.229,2.692,-464.966,-15.320,-127.808
-0.457,-1.793,3.227,-461.121,65.369,-138.794
-0.723,-1.478,3.540,-424.866,-8.850,-140.991
-0.792,-0.786,3.908,-346.130,-127.380,-94.238
-0.846,-0.520,3.973,-296.448,-162.659,-71.472
-0.831,-0.194,3.882,-197.937,-200.073,-18.311
-0.808,-0.062,3.685,-148.560,-188.293,5.859
-0.686,0.230,3.287,-76.111,-104.919,25.757
-0.573,0.302,3.073,-46.509,-39.673,25.574
-0.349,0.198,2.418,14.648,30.029,21.057
-0.282,0.090,2.043,37.964,31.067,20.630
-0.201,-0.007,1.471,50.659,-8.667,19.958
-0.192,0.010,1.290,49.500,-29.358,22.095
-0.173,0.054,1.096,37.903,-45.288,17.151
-0.212,0.059,1.068,30.701,-46.631,8.179
-0.280,0.052,1.062,24.353,-46.875,1.526
-0.354,0.081,1.057,11.719,-48.340,2.747
-0.349,0.107,1.049,7.507,-48.096,5.432
-0.293,0.156,1.006,-0.916,-34.546,5.188
-0.238,0.166,0.982,-4.517,-23.071,3.601
-0.190,0.145,0.987,-10.132,-10.437,0.061
-0.192,0.131,1.047,-22.583,5.371,-9.827
-0.196,0.138,1.106,-25.085,5.066,-11.292
-0.254,0.137,1.197,-25.024,-7.690,-13.062
-0.247,0.134,1.220,-22.888,-15.869,-9.766
-0.249,0.153,1.235,-20.569,-19.897,-6.348
-0.266,0.156,1.247,-18.127,-16.602,-6.165
-0.258,0.153,1.233,-15.381,-14.038,-4.761
-0.242,0.167,1.208,-12.024,0.183,-5.249
-0.227,0.174,1.182,-10.559,4.517,-5.920
-0.211,0.163,1.112,-7.935,8.057,-4.883
-0.186,0.164,1.103,-6.714,6.531,-3.113
-0.165,0.161,1.092,-7.019,2.808,-2.625
-0.151,0.161,1.080,-5.981,1.465,-3.479
-0.143,0.164,1.080,-6.287,-0.244,-3.540
-0.164,0.146,1.060,-3.906,-0.305,-6.836
-0.172,0.140,1.056,-5.188,-2.319,-5.737
-0.151,0.132,1.053,-3.967,-4.211,-2.625
-0.141,0.133,1.042,-3.601,-5.737,-2.258
-0.151,0.134,1.048,-2.014,-4.211,-2.869
-0.142,0.125,1.009,-0.977,-2.625,-5.859
-0.152,0.115,0.988,-1.526,1.343,-8.667
-0.155,0.112,0.968,-2.563,3.662,-9.644
-0.162,0.107,0.950,-5.493,4.639,-8.728
-0.156,0.112,0.948,-7.263,2.441,-10.254
-0.166,0.122,0.966,-7.263,-1.648,-10.620
-0.175,0.120,0.965,-6.531,-2.563,-10.803
-0.183,0.128,0.951,-8.301,-4.395,-11.536
-0.204,0.124,0.941,-5.859,-4.639,-12.695
-0.225,0.120,0.940,-7.812,-4.272,-11.780
-0.225,0.125,0.926,-10.742,-1.770,-9.949
-0.231,0.135,0.928,-12.634,2.136,-11.780
-0.270,0.132,0.943,-15.015,5.859,-12.695
-0.270,0.131,0.947,-14.832,5.920,-12.634
-0.279,0.138,0.952,-14.038,5.249,-10.620
-0.279,0.131,0.931,-14.587,-2.441,-7.019
-0.266,0.134,0.929,-15.747,-4.456,-5.859
-0.251,0.128,0.923,-14.526,-7.507,-5.493
-0.245,0.128,0.931,-16.113,-9.827,-4.578
-0.265,0.139,0.950,-16.296,-9.033,-6.226
-0.265,0.131,0.961,-16.968,-8.850,-6.409
-0.276,0.125,0.963,-19.775,-5.615,-6.836
-0.286,0.129,0.974,-20.325,-3.845,-7.019
-0.280,0.144,0.977,-19.775,-4.211,-3.845
-0.248,0.124,0.959,-18.494,-5.249,-3.296
-0.246,0.133,0.961,-19.897,-5.920,-1.648
-0.221,0.138,0.973,-18.860,-8.057,-2.136
-0.219,0.138,0.993,-19.409,-8.118,-3.723
-0.222,0.143,1.008,-19.409,-7.446,-4.395
-0.235,0.151,1.021,-18.188,-6.653,-4.700
-0.240,0.141,1.024,-17.029,-6.531,-4.150
-0.234,0.138,1.030,-18.799,-4.944,-3.052
-0.232,0.138,1.028,-16.296,-3.967,-4.150
-0.221,0.130,1.015,-15.991,-3.296,-3.479
-0.215,0.138,1.013,-14.893,-3.540,-2.136
-0.188,0.134,1.013,-14.587,-6.287,-1.587
-0.191,0.131,1.014,-13.306,-6.287,-2.930
-0.202,0.132,1.004,-12.939,-6.958,-2.808
-0.206,0.128,0.988,-14.404,-6.226,-4.211
-0.192,0.132,0.994,-15.991,-5.737,-3.662
-0.192,0.130,0.998,-16.296,-6.226,-5.371
-0.189,0.124,1.007,-17.273,-7.019,-6.287
-0.181,0.132,1.017,-18.311,-7.141,-7.446
-0.191,0.129,1.036,-18.066,-7.019,-7.812
-0.189,0.128,1.036,-17.151,-7.080,-8.362
-0.233,0.128,1.038,-17.456,-9.644,-7.812
-0.233,0.125,1.039,-15.930,-9.155,-6.104
-0.234,0.122,1.022,-14.709,-7.568,-4.578
-0.221,0.138,1.012,-15.625,-7.751,-4.028
-0.215,0.130,1.004,-16.052,-7.080,-4.517
-0.219,0.125,0.995,-15.869,-7.812,-4.761
-0.211,0.114,0.994,-15.686,-7.996,-5.005
-0.212,0.124,1.002,-17.151,-7.812,-5.371
-0.223,0.125,1.033,-16.846,-7.202,-5.371

0.388,0.415,-1.704,-59.387,-18.555,-0.366
0.398,0.380,-1.746,-72.754,-18.860,-8.301
0.375,0.277,-1.805,-100.342,-17.029,-25.085
0.345,0.236,-1.804,-114.685,-16.785,-32.715
0.258,0.130,-1.815,-144.653,-22.705,-43.640
0.213,0.103,-1.803,-161.011,-28.076,-45.776
0.168,0.026,-1.764,-195.007,-40.588,-46.875
0.155,-0.020,-1.698,-211.548,-47.302,-44.128
0.137,-0.100,-1.598,-244.141,-55.176,-44.556
0.142,-0.172,-1.587,-256.897,-56.702,-46.143
0.200,-0.318,-1.626,-283.020,-70.557,-42.847
0.285,-0.402,-1.715,-294.189,-81.665,-38.879
0.542,-0.614,-1.916,-330.200,-101.257,-39.307
0.720,-0.713,-2.021,-358.643,-108.887,-46.997
0.883,-1.052,-1.816,-438.904,-118.103,-83.801
0.932,-1.253,-1.711,-483.154,-122.070,-104.858
0.921,-1.633,-0.996,-577.393,-126.526,-165.039
0.743,-2.068,-0.136,-642.578,-128.479,-213.745
0.603,-2.266,0.303,-660.156,-135.132,-223.267
0.365,-2.449,1.748,-659.424,-151.306,-223.389
0.254,-2.377,2.253,-627.930,-180.359,-197.388
0.375,-2.473,2.266,-555.237,-266.663,-139.832
0.538,-2.669,2.095,-532.349,-277.527,-125.793
0.728,-2.844,2.167,-553.101,-234.497,-139.526
0.440,-2.691,2.913,-580.200,-191.895,-172.180
0.185,-2.444,3.252,-570.435,-169.678,-182.373
-0.618,-1.872,3.532,-531.006,-103.943,-201.111
-0.959,-1.548,3.680,-505.554,-83.557,-194.885
-1.130,-0.827,4.099,-450.256,-24.353,-130.676
-1.013,-0.321,4.220,-375.977,-84.656,-101.135
-0.646,0.193,4.087,-243.103,-111.877,-55.237
-0.572,0.301,3.580,-132.935,-96.497,-35.156
-0.544,0.294,3.254,-85.815,-88.867,-20.508
-0.404,0.222,2.558,-17.761,-90.088,2.808
-0.345,0.194,2.243,1.648,-84.045,5.127
-0.327,0.143,1.976,15.259,-72.632,5.188
-0.327,0.068,1.553,20.752,-49.072,0.854
-0.327,0.052,1.447,14.099,-36.987,-2.625
-0.306,0.054,1.404,0.671,-20.447,-6.348
-0.283,0.064,1.404,-4.700,-20.447,-6.409
-0.238,0.084,1.404,-7.080,-22.766,-1.831
-0.182,0.130,1.316,-8.362,-28.198,-1.282
-0.171,0.154,1.262,-6.775,-30.273,-0.610
-0.156,0.182,1.170,-11.902,-34.668,-3.662
-0.149,0.166,1.151,-14.343,-30.823,-6.836
-0.176,0.147,1.143,-25.024,-16.357,-15.564
-0.231,0.136,1.188,-29.785,-8.606,-20.203
-0.288,0.117,1.286,-39.490,-0.061,-25.513
-0.313,0.120,1.340,-42.358,3.662,-26.001
-0.343,0.126,1.370,-43.457,5.127,-25.269
-0.348,0.137,1.426,-39.795,5.676,-20.874
-0.347,0.142,1.449,-35.767,4.272,-17.700
-0.324,0.168,1.427,-20.996,2.930,-10.925
-0.311,0.167,1.383,-15.930,1.526,-8.789
-0.267,0.145,1.277,-4.456,3.601,-5.127
-0.231,0.127,1.238,-1.709,3.784,-3.418
-0.208,0.103,1.193,0.488,4.395,-2.563
-0.168,0.085,1.088,2.869,6.470,-2.197
-0.154,0.095,1.070,2.014,7.263,-1.221
-0.107,0.083,1.053,-0.671,6.104,-1.465
-0.056,0.089,1.040,-1.404,6.470,-1.892
-0.048,0.094,1.039,-1.343,6.531,-4.333
-0.049,0.093,1.036,-0.305,3.601,-7.751
-0.028,0.066,0.971,-0.366,1.587,-10.010
-0.032,0.063,0.943,-1.648,0.732,-13.062
-0.042,0.062,0.904,-2.991,1.221,-18.005
-0.061,0.076,0.900,-4.333,2.563,-20.752
-0.099,0.068,0.911,-7.568,3.296,-23.376
-0.190,0.078,0.941,-7.935,5.859,-23.315
-0.195,0.079,0.938,-7.935,6.348,-20.142
-0.194,0.082,0.906,-6.531,7.080,-17.090
-0.199,0.088,0.899,-6.470,5.798,-16.724
-0.197,0.081,0.898,-6.653,2.380,-15.381
-0.247,0.092,0.875,-5.188,1.526,-12.878
-0.262,0.089,0.845,-6.836,0.183,-12.695
-0.240,0.077,0.829,-15.808,1.587,-8.423
-0.238,0.085,0.842,-19.348,3.662,-8.301
-0.238,0.101,0.854,-24.414,5.432,-10.132
-0.250,0.108,0.899,-25.024,4.089,-10.010
-0.239,0.105,0.915,-24.292,1.343,-10.376
-0.250,0.104,0.922,-24.170,-5.920,-9.521
-0.263,0.096,0.928,-22.766,-9.277,-7.935
-0.287,0.079,0.929,-20.203,-14.526,-8.179
-0.311,0.082,0.931,-20.447,-12.268,-6.714
-0.345,0.083,0.970,-23.132,-4.150,-4.639
-0.332,0.089,0.980,-23.560,-1.221,-2.991
-0.322,0.091,0.992,-22.095,-0.488,-1.099
-0.277,0.098,1.004,-20.813,-2.319,1.831
-0.251,0.113,0.993,-20.325,-4.944,3.540
-0.204,0.101,0.986,-17.273,-10.498,3.479
-0.202,0.098,0.972,-15.564,-12.390,3.906
-0.221,0.079,0.935,-18.738,-14.771,0.610
-0.204,0.079,0.942,-21.545,-14.893,2.808
-0.194,0.086,0.969,-24.048,-12.939,1.709
-0.192,0.095,1.017,-27.405,-7.507,-0.732
-0.207,0.101,1.036,-28.503,-5.737,-1.465
-0.218,0.103,1.060,-26.367,-6.409,-1.160
-0.204,0.109,1.071,-24.475,-6.287,-1.343
-0.202,0.104,1.059,-21.484,-6.531,-1.221
-0.204,0.111,1.056,-19.043,-7.263,-1.587
-0.196,0.105,1.054,-17.822,-8.423,0.610
-0.185,0.100,1.026,-15.747,-8.179,0.549
-0.176,0.098,1.015,-16.418,-8.545,-1.221
-0.162,0.094,1.001,-17.273,-7.324,-1.404
-0.144,0.093,1.000,-17.761,-6.470,-1.770
-0.140,0.093,0.995,-20.813,-4.272,-5.310
-0.122,0.091,1.014,-21.423,-4.028,-5.798
-0.121,0.094,1.018,-22.278,-4.272,-7.690
-0.122,0.096,1.016,-21.423,-5.737,-9.155
-0.132,0.092,1.024,-23.560,-7.812,-10.498
-0.139,0.084,1.016,-22.095,-8.850,-11.841
-0.151,0.082,1.017,-22.217,-7.690,-11.963
-0.176,0.082,1.039,-22.217,-8.057,-12.939
-0.193,0.073,1.046,-21.973,-7.324,-12.817
-0.199,0.065,1.057,-22.095,-6.592,-11.841
-0.192,0.057,1.060,-21.301,-7.080,-11.353
-0.192,0.065,1.059,-20.447,-6.348,-9.094
-0.213,0.083,1.076,-19.836,-4.272,-8.911
-0.213,0.079,1.081,-19.104,-4.089,-7.141

0.197,0.435,-1.983,-14.587,-62.378,45.898
0.180,0.374,-2.054,-32.410,-62.866,41.443
0.197,0.358,-2.152,-68.665,-67.749,37.598
0.266,0.285,-2.319,-88.440,-72.815,34.058
0.327,0.223,-2.394,-108.948,-76.233,29.358
0.380,0.078,-2.586,-150.818,-87.341,20.081
0.411,-0.021,-2.651,-174.561,-98.450,16.296
0.420,-0.249,-2.712,-233.704,-129.639,8.423
0.396,-0.373,-2.708,-265.625,-141.968,2.991
0.369,-0.588,-2.598,-336.792,-166.504,-5.493
0.396,-0.717,-2.470,-377.380,-175.110,-12.451
0.653,-0.901,-1.985,-471.008,-152.039,-46.387
0.694,-1.088,-1.270,-565.308,-68.054,-122.192
0.645,-1.231,-0.906,-601.807,-34.912,-157.471
0.514,-1.522,-0.239,-644.165,-23.743,-188.904
0.519,-1.651,0.042,-657.104,-38.879,-193.359
0.628,-1.775,0.771,-667.664,-76.782,-195.984
0.712,-1.704,1.378,-658.020,-98.328,-195.190
0.648,-1.731,2.396,-588.989,-156.067,-183.105
0.648,-1.701,2.610,-541.626,-208.008,-160.217
0.492,-1.692,2.637,-456.726,-279.480,-129.150
0.226,-1.782,2.406,-406.921,-231.384,-125.244
0.013,-1.793,2.309,-406.433,-175.110,-123.779
-0.215,-1.602,2.315,-410.767,-63.171,-127.869
-0.258,-1.454,2.337,-408.020,-15.381,-129.639
-0.306,-1.110,2.554,-387.939,30.029,-127.380
-0.258,-1.008,2.563,-376.404,53.345,-124.268
-0.436,-0.737,2.962,-302.612,-48.279,-119.446
-0.520,-0.572,3.107,-274.841,-75.317,-106.262
-0.613,-0.312,3.195,-197.021,-127.747,-82.397
-0.893,-0.343,3.008,-121.826,-160.034,-48.828
-0.831,-0.211,2.935,-95.825,-142.273,-21.484
-0.694,-0.006,2.753,-61.035,-60.791,-5.127
-0.620,0.052,2.601,-38.269,-24.719,0.183
-0.382,0.065,2.186,1.160,-1.465,12.634
-0.294,0.067,1.938,17.578,-2.319,14.648
-0.221,0.033,1.692,30.945,-8.423,14.648
-0.188,-0.003,1.289,32.288,-17.212,5.676
-0.211,0.016,1.171,24.902,-22.095,-1.282
-0.350,0.034,1.118,10.071,-28.259,-13.550
-0.440,0.046,1.159,4.211,-30.518,-16.296
-0.517,0.100,1.246,-4.639,-32.227,-12.512
-0.534,0.126,1.269,-7.446,-30.457,-9.460
-0.545,0.138,1.263,-6.042,-28.198,-9.583
-0.545,0.110,1.243,-5.859,-20.691,-5.005
-0.528,0.104,1.257,-6.226,-11.475,-2.319
-0.476,0.099,1.251,-5.981,0.000,-1.099
-0.436,0.110,1.253,-6.592,4.028,-0.183
-0.411,0.111,1.257,-4.639,6.470,1.099
-0.402,0.102,1.199,-2.014,2.991,1.221
-0.386,0.100,1.185,-3.174,1.099,4.395
-0.345,0.111,1.155,-3.906,-0.549,7.812
-0.329,0.133,1.149,-1.587,-1.648,6.042
-0.328,0.124,1.137,-2.747,-1.343,4.639
-0.338,0.105,1.113,0.366,4.089,3.235
-0.325,0.112,1.112,-0.244,8.423,3.601
-0.301,0.104,1.089,1.526,13.306,3.967
-0.264,0.121,1.058,1.526,17.029,6.287
-0.235,0.132,1.028,1.892,15.076,7.629
-0.196,0.121,1.014,2.075,12.329,9.155
-0.159,0.130,0.970,3.784,6.165,8.179
-0.149,0.125,0.978,2.869,4.517,6.287
-0.138,0.132,0.964,2.869,4.272,4.822
-0.131,0.148,0.956,1.282,3.723,-0.122
-0.152,0.148,0.951,2.380,3.357,-1.526
-0.178,0.133,0.932,1.282,3.296,-1.587
-0.221,0.121,0.915,-0.854,4.944,-2.502
-0.228,0.130,0.904,-2.075,7.446,-3.174
-0.227,0.134,0.891,-4.639,9.766,-3.662
-0.231,0.144,0.897,-5.859,10.193,-4.333
-0.231,0.148,0.895,-6.714,8.850,-3.601
-0.228,0.148,0.889,-8.484,5.005,-1.038
-0.206,0.161,0.883,-8.789,1.465,-0.244
-0.204,0.161,0.878,-9.094,0.366,-0.488
-0.194,0.176,0.891,-11.353,-1.953,-1.343
-0.214,0.165,0.902,-11.475,-4.395,-2.808
-0.270,0.147,0.912,-13.611,-5.127,-4.700
-0.283,0.156,0.909,-12.878,-5.066,-4.578
-0.288,0.163,0.919,-13.855,-5.310,-4.822
-0.296,0.164,0.917,-14.893,-3.357,-5.005
-0.296,0.168,0.919,-15.259,-1.709,-4.456
-0.276,0.162,0.925,-15.564,-3.296,-1.343
-0.268,0.179,0.930,-14.893,-4.578,-1.099
-0.249,0.173,0.924,-15.381,-5.188,-2.014
-0.263,0.175,0.927,-16.052,-6.714,-3.174
-0.276,0.158,0.941,-16.174,-8.972,-3.174
-0.308,0.175,0.963,-16.602,-5.981,-3.784
-0.314,0.172,0.969,-17.944,-4.395,-3.540
-0.308,0.164,0.990,-16.663,-1.770,-2.869
-0.289,0.177,0.985,-16.052,-4.028,-1.038
-0.281,0.176,0.970,-16.357,-7.019,-0.122
-0.272,0.183,0.969,-15.564,-8.179,0.793
-0.262,0.189,0.961,-15.198,-9.644,1.343
-0.250,0.179,0.960,-15.198,-10.986,0.183
-0.229,0.172,0.971,-15.991,-9.949,-1.221
-0.255,0.158,0.982,-17.883,-9.094,-3.357
-0.273,0.163,0.990,-17.700,-9.277,-4.700
-0.278,0.148,1.013,-18.921,-9.338,-3.967
-0.278,0.152,1.016,-17.822,-9.460,-3.540
-0.276,0.159,1.030,-17.517,-8.057,-3.845
-0.276,0.160,1.012,-15.869,-6.714,-2.930
-0.265,0.166,0.992,-14.832,-6.836,-1.892
-0.252,0.171,0.967,-13.306,-7.690,-2.380
-0.241,0.161,0.960,-13.733,-8.301,-1.221
-0.237,0.160,0.950,-13.733,-8.362,-2.380
-0.243,0.154,0.960,-14.771,-8.057,-3.113
-0.252,0.161,0.973,-16.541,-7.935,-5.066
-0.251,0.147,0.977,-17.334,-7.080,-5.066
-0.265,0.144,0.994,-16.846,-7.202,-4.211
-0.278,0.134,1.000,-16.174,-5.371,-3.296
-0.269,0.145,1.016,-16.724,-5.493,-2.563
-0.260,0.152,1.001,-15.869,-7.141,-2.686
-0.252,0.152,0.991,-14.587,-7.019,-1.099
-0.242,0.162,0.988,-14.771,-7.568,-1.343
-0.229,0.162,0.972,-16.724,-7.935,-3.540
-0.236,0.155,0.979,-15.808,-7.080,-4.150
-0.276,0.147,0.997,-17.090,-6.653,-6.287
-0.291,0.153,1.012,-16.846,-5.554,-6.348
-0.299,0.147,1.010,-16.602,-4.150,-4.700

0.301,0.378,-1.893,-4.150,-43.640,35.889
0.388,0.354,-2.013,-17.944,-49.072,34.912
0.427,0.247,-2.126,-35.034,-53.772,30.212
0.496,0.063,-2.319,-76.660,-65.125,20.447
0.523,0.079,-2.395,-98.450,-69.397,18.005
0.538,-0.084,-2.470,-156.616,-76.721,-4.822
0.513,-0.170,-2.466,-187.256,-79.651,-15.076
0.458,-0.346,-2.333,-247.986,-94.849,-32.593
0.428,-0.421,-2.211,-279.602,-103.943,-39.307
0.392,-0.544,-1.832,-335.266,-109.863,-55.054
0.389,-0.662,-1.501,-378.967,-115.112,-67.078
0.446,-0.710,-1.401,-400.818,-122.314,-70.496
0.520,-0.832,-1.063,-449.768,-135.803,-83.313
0.514,-0.881,-0.814,-477.417,-139.465,-93.384
0.518,-0.929,-0.258,-513.733,-138.855,-102.783
0.552,-0.947,0.035,-527.954,-141.663,-106.873
0.534,-0.961,0.595,-533.325,-161.072,-110.718
0.500,-1.020,0.800,-508.362,-216.431,-89.050
0.429,-1.292,1.041,-489.563,-252.686,-63.843
0.763,-1.501,1.022,-465.576,-306.458,-12.146
0.961,-1.687,1.053,-461.182,-292.542,-5.371
1.146,-1.947,1.568,-507.935,-141.357,-76.721
0.971,-1.966,2.027,-537.842,-30.823,-143.005
0.172,-2.166,2.635,-533.813,107.544,-245.972
-0.318,-2.212,2.813,-524.292,115.112,-271.240
-0.915,-1.701,3.434,-506.042,53.955,-228.882
-1.059,-1.268,3.710,-479.248,8.667,-190.186
-1.146,-0.513,3.821,-373.230,-101.440,-117.859
-1.083,-0.335,3.648,-326.050,-113.770,-74.768
-0.838,-0.192,3.288,-209.351,-274.841,-36.377
-0.558,0.073,3.117,-156.738,-227.539,32.043
-0.376,0.189,3.101,-138.306,-167.786,27.283
-0.296,0.341,3.053,-105.164,-4.395,-14.465
-0.275,0.294,2.895,-79.407,39.795,-28.564
-0.322,0.321,2.677,-20.935,14.709,-20.508
-0.245,0.265,2.168,3.784,-6.897,-3.540
-0.259,0.189,1.900,22.156,-25.452,1.221
-0.309,0.110,1.426,33.081,-40.344,-1.648
-0.364,0.101,1.288,29.419,-31.677,-6.958
-0.499,0.055,1.143,13.550,-13.733,-13.855
-0.514,0.083,1.126,5.432,-12.085,-11.841
-0.501,0.099,1.122,0.488,-17.883,-5.676
-0.394,0.161,1.099,-3.906,-36.255,5.737
-0.344,0.185,1.100,-7.996,-38.574,9.033
-0.283,0.171,1.095,-13.550,-23.804,0.793
-0.299,0.170,1.112,-16.602,-7.996,-6.165
-0.344,0.151,1.153,-24.902,9.155,-12.939
-0.357,0.158,1.173,-25.085,11.597,-11.658
-0.358,0.155,1.183,-25.940,8.179,-9.155
-0.323,0.167,1.180,-24.231,1.953,-3.418
-0.310,0.167,1.170,-23.315,-1.648,-1.099
-0.275,0.170,1.133,-19.714,-4.211,2.686
-0.227,0.174,1.124,-17.212,-4.150,5.676
-0.192,0.172,1.104,-16.785,-4.272,5.066
-0.144,0.180,1.079,-14.832,-3.967,5.554
-0.109,0.179,1.055,-13.855,-3.723,4.822
-0.092,0.171,1.025,-12.512,0.427,3.479
-0.073,0.174,1.032,-11.780,2.075,2.869
-0.068,0.170,1.027,-11.719,1.709,2.869
-0.058,0.160,1.001,-9.155,1.160,0.671
-0.060,0.159,0.991,-8.911,0.977,0.305
-0.054,0.152,0.982,-8.057,-0.671,-2.319
-0.043,0.143,0.953,-9.094,2.991,-1.221
-0.036,0.159,0.952,-10.986,1.953,-2.136
-0.056,0.169,0.943,-11.047,-2.014,-6.287
-0.060,0.176,0.937,-11.353,-3.540,-5.676
-0.104,0.144,0.918,-10.620,-7.935,-8.301
-0.115,0.141,0.891,-10.193,-8.118,-10.071
-0.146,0.113,0.852,-12.268,-6.775,-10.498
-0.173,0.116,0.862,-20.142,-5.493,-9.766
-0.183,0.123,0.879,-22.461,-6.897,-9.705
-0.169,0.156,0.912,-24.841,-11.719,-7.507
-0.150,0.156,0.908,-25.330,-14.404,-7.568
-0.168,0.145,0.907,-25.635,-19.714,-7.568
-0.167,0.138,0.909,-26.001,-21.362,-6.409
-0.179,0.137,0.906,-29.541,-22.949,-6.775
-0.182,0.149,0.945,-31.555,-18.982,-7.935
-0.185,0.160,0.985,-33.569,-11.902,-12.085
-0.229,0.144,1.019,-31.555,-11.230,-10.986
-0.247,0.151,1.031,-31.677,-12.390,-6.897
-0.252,0.162,1.058,-30.518,-13.550,-5.066
-0.238,0.157,1.058,-27.832,-14.465,-2.930
-0.222,0.141,1.047,-24.231,-13.550,-0.916
-0.207,0.143,1.050,-22.644,-12.878,-1.709
-0.188,0.133,1.056,-21.606,-13.428,-1.343
-0.179,0.132,1.061,-21.362,-14.587,-1.343
-0.173,0.146,1.076,-20.752,-14.648,-0.977
-0.180,0.150,1.072,-20.752,-14.404,-2.014
-0.174,0.153,1.082,-18.616,-10.803,-1.343
-0.168,0.168,1.076,-18.005,-8.972,-2.258
-0.172,0.151,1.072,-15.869,-4.944,-1.343
-0.178,0.141,1.045,-15.137,-6.287,-1.099
-0.161,0.143,1.038,-15.381,-7.446,-1.404
-0.139,0.147,1.045,-14.465,-10.010,0.427
-0.135,0.147,1.040,-14.160,-10.254,1.831
-0.129,0.152,1.030,-12.329,-12.146,1.648
-0.121,0.152,1.025,-13.733,-12.817,1.648
-0.113,0.153,1.019,-13.855,-11.597,0.000
-0.101,0.137,1.007,-14.221,-9.827,-1.831
-0.109,0.146,1.019,-15.137,-7.751,-1.953
-0.122,0.143,1.041,-17.151,-6.104,-4.272
-0.124,0.145,1.051,-16.846,-6.287,-3.845
-0.107,0.139,1.051,-15.625,-8.911,-2.991
-0.115,0.137,1.044,-14.099,-9.216,-1.648
-0.114,0.144,1.048,-13.916,-9.399,-2.808
-0.115,0.145,1.048,-12.939,-9.583,-1.343
-0.108,0.137,1.034,-13.000,-10.071,-1.526
-0.123,0.124,1.003,-13.611,-10.010,-3.296
-0.126,0.131,1.010,-13.245,-9.583,-2.930
-0.133,0.133,1.027,-14.465,-9.216,-3.601
-0.130,0.131,1.021,-13.550,-8.728,-3.967
-0.137,0.131,1.015,-13.977,-8.301,-3.113
-0.121,0.131,1.007,-14.221,-8.850,-3.113
-0.109,0.134,1.015,-15.076,-9.094,-3.479
-0.098,0.132,1.023,-15.076,-8.362,-5.249
-0.117,0.124,1.026,-14.832,-8.240,-5.371
-0.133,0.134,1.040,-15.259,-10.559,-3.357
-0.139,0.130,1.031,-13.733,-10.864,-2.197
-0.147,0.131,1.020,-12.756,-11.230,-1.953

0.356,-0.437,-2.005,42.603,-104.309,76.965
0.470,-0.488,-2.198,23.132,-112.061,79.590
0.566,-0.643,-2.417,-46.875,-96.375,55.176
0.550,-0.722,-2.422,-90.393,-85.449,37.598
0.540,-0.767,-2.400,-180.908,-70.740,0.610
0.411,-0.923,-2.280,-222.961,-69.580,-16.052
0.365,-1.063,-2.153,-305.359,-77.209,-30.334
0.343,-1.087,-2.045,-348.694,-81.970,-37.659
0.332,-1.166,-1.832,-430.176,-108.093,-32.349
0.356,-1.212,-1.679,-473.389,-120.056,-33.813
0.521,-1.311,-1.333,-554.443,-136.047,-36.011
0.630,-1.382,-1.107,-593.140,-142.029,-41.748
0.786,-1.548,-0.658,-659.729,-140.259,-68.420
0.859,-1.669,-0.388,-692.078,-128.113,-88.318
0.881,-1.860,0.273,-749.634,-91.064,-144.043
0.926,-1.976,0.906,-766.602,-57.434,-194.336
0.921,-1.976,1.462,-764.587,-61.951,-215.088
0.789,-2.178,1.956,-715.576,-134.766,-223.938
0.861,-2.277,1.971,-704.834,-190.735,-217.285
0.846,-2.520,2.182,-709.778,-254.578,-221.802
0.860,-2.799,2.269,-714.294,-262.207,-234.924
0.641,-3.135,2.698,-760.254,-215.332,-293.579
0.295,-3.192,3.170,-772.339,-160.278,-332.581
-0.882,-2.498,4.386,-734.375,-48.462,-380.676
-1.898,-1.550,4.635,-639.404,67.200,-325.378
-2.622,-0.605,4.572,-554.626,89.355,-241.455
-1.963,-0.406,4.852,-375.427,-112.915,-168.701
-1.905,0.093,3.571,-279.419,-116.211,-118.347
-1.437,-0.401,3.554,-151.794,-129.028,-46.814
-1.197,-0.296,3.215,-91.125,-158.936,16.174
-0.465,-0.135,2.723,-30.273,-161.743,93.811
-0.213,0.046,2.593,-18.616,-134.644,97.412
-0.070,0.099,2.122,12.024,-61.523,57.800
-0.081,0.053,1.885,23.315,-22.095,39.246
-0.247,-0.049,1.487,25.818,21.973,6.897
-0.387,-0.076,1.354,23.621,24.902,0.000
-0.476,-0.076,1.259,23.315,1.343,2.258
-0.486,-0.061,1.184,23.804,-13.184,8.179
-0.473,-0.047,1.169,21.423,-21.179,13.000
-0.427,0.010,1.156,17.212,-30.212,15.442
-0.402,0.032,1.130,17.700,-26.550,16.968
-0.323,0.034,1.110,12.268,-28.442,17.029
-0.295,0.043,1.114,9.033,-24.597,15.381
-0.279,0.042,1.118,5.432,-21.240,12.268
-0.265,0.059,1.122,-2.136,-12.512,5.676
-0.281,0.075,1.131,-3.784,-8.606,2.808
-0.288,0.081,1.143,-4.639,-8.667,1.160
-0.280,0.070,1.148,-2.197,-10.864,2.014
-0.301,0.068,1.139,-1.587,-11.841,1.770
-0.321,0.083,1.144,-0.122,-15.381,3.601
-0.324,0.080,1.127,1.099,-16.357,5.188
-0.291,0.089,1.127,4.089,-16.235,7.812
-0.280,0.107,1.114,5.005,-13.794,7.080
-0.282,0.098,1.095,6.836,-11.475,7.935
-0.233,0.094,1.054,6.165,-2.747,8.911
-0.199,0.103,1.030,5.432,3.052,8.606
-0.177,0.096,1.023,4.456,6.287,6.470
-0.126,0.104,1.006,3.845,7.141,7.874
-0.106,0.116,0.994,3.906,5.493,7.935
-0.099,0.112,0.990,4.456,3.723,6.836
-0.109,0.119,1.018,4.639,0.366,2.380
-0.118,0.113,1.024,6.226,-1.282,1.160
-0.130,0.108,1.017,6.470,-3.540,-0.244
-0.163,0.097,0.993,8.301,-6.836,-1.404
-0.178,0.075,0.960,8.850,-8.667,-1.526
-0.193,0.079,0.934,8.667,-8.545,-1.343
-0.194,0.085,0.908,4.761,-4.150,-2.502
-0.205,0.088,0.906,2.380,0.549,-5.371
-0.229,0.099,0.903,-3.052,4.272,-7.629
-0.224,0.098,0.912,-4.578,3.052,-6.531
-0.214,0.106,0.922,-5.249,0.366,-5.981
-0.231,0.102,0.926,-6.714,-4.883,-5.737
-0.246,0.115,0.933,-7.080,-6.653,-5.188
-0.254,0.115,0.926,-7.507,-9.705,-5.615
-0.278,0.115,0.921,-7.568,-10.254,-5.920
-0.293,0.099,0.913,-7.080,-10.681,-5.432
-0.323,0.088,0.907,-10.986,-11.169,-5.188
-0.330,0.093,0.905,-13.550,-10.925,-5.066
-0.318,0.083,0.913,-15.381,-9.155,-2.747
-0.314,0.089,0.922,-17.273,-9.216,-1.648
-0.299,0.101,0.956,-19.531,-10.254,-0.244
-0.291,0.131,0.988,-18.494,-11.353,0.610
-0.290,0.134,1.005,-17.822,-10.681,0.793
-0.299,0.129,0.996,-12.939,-9.644,0.122
-0.292,0.114,0.977,-11.475,-10.193,1.343
-0.274,0.097,0.943,-10.864,-12.512,3.113
-0.271,0.097,0.945,-12.817,-11.658,3.113
-0.261,0.107,0.960,-14.465,-7.751,3.418
-0.255,0.113,0.982,-15.381,-6.836,2.136
-0.249,0.114,0.978,-16.235,-6.226,3.052
-0.244,0.116,0.965,-15.869,-6.470,3.418
-0.234,0.125,0.972,-16.357,-6.958,3.906
-0.212,0.127,0.979,-15.503,-7.446,3.845
-0.218,0.135,0.990,-15.503,-7.751,2.502
-0.216,0.132,0.989,-15.137,-8.545,2.686
-0.219,0.120,0.982,-15.076,-10.559,1.953
-0.224,0.125,0.989,-16.174,-11.047,2.441
-0.210,0.128,1.002,-15.015,-11.414,3.296
-0.214,0.140,1.001,-15.503,-12.268,1.343
-0.228,0.135,0.996,-14.954,-11.536,1.953
-0.214,0.114,0.981,-15.076,-10.681,2.747
-0.197,0.120,0.976,-16.357,-8.911,2.380
-0.189,0.134,0.984,-18.616,-7.019,0.488
-0.181,0.134,0.992,-17.578,-7.019,0.549
-0.191,0.141,1.025,-16.785,-8.667,0.977
-0.188,0.135,1.029,-16.052,-8.545,0.916
-0.191,0.128,1.030,-16.479,-10.071,0.916
-0.187,0.125,1.028,-14.771,-9.033,-0.122
-0.188,0.128,1.030,-15.137,-7.690,-1.343
-0.202,0.119,1.042,-14.160,-8.362,-2.075
-0.217,0.110,1.018,-14.099,-7.690,-1.648
-0.210,0.122,1.020,-14.709,-6.653,-0.244
-0.188,0.129,1.022,-13.977,-6.226,-0.305
-0.190,0.131,1.011,-13.611,-6.348,-0.183
-0.189,0.137,1.008,-14.709,-8.728,-1.404
-0.200,0.146,1.019,-13.977,-8.545,-2.686
-0.234,0.129,1.021,-12.695,-8.789,-2.258
-0.239,0.128,1.028,-12.268,-8.606,-2.136
-0.225,0.115,1.031,-12.634,-7.996,-2.197

0.379,-0.244,-2.043,145.081,-88.074,105.103
0.484,-0.351,-2.126,128.479,-85.388,100.403
0.554,-0.496,-2.386,90.698,-72.266,77.698
0.537,-0.609,-2.555,63.599,-68.848,56.213
0.556,-0.741,-2.726,-31.128,-40.955,25.696
0.656,-0.815,-3.011,-95.642,-32.532,7.202
0.692,-0.844,-3.018,-173.645,-27.161,-16.357
0.669,-0.982,-2.614,-328.003,-26.489,-68.054
0.633,-1.057,-2.334,-451.782,-50.964,-104.980
0.653,-1.151,-1.812,-510.559,-67.444,-121.399
0.617,-1.308,-1.204,-608.398,-99.487,-161.682
0.610,-1.398,-0.940,-648.010,-114.014,-176.453
0.735,-1.652,-0.599,-708.252,-166.382,-170.044
0.818,-1.755,-0.462,-738.647,-187.866,-173.279
1.123,-2.076,-0.243,-792.603,-245.483,-185.242
1.495,-2.660,0.034,-849.548,-302.917,-207.581
1.677,-3.035,0.338,-882.324,-316.162,-224.731
1.930,-3.782,1.388,-945.068,-305.542,-284.790
2.003,-3.942,2.199,-970.764,-289.185,-323.547
0.618,-3.240,4.742,-938.293,-196.411,-427.429
-0.484,-3.006,5.195,-844.421,-196.777,-422.546
-1.365,-2.716,4.139,-565.857,-294.739,-243.225
-1.012,-2.763,2.849,-448.914,-333.557,-74.219
-0.716,-2.647,2.547,-464.050,-297.485,-29.846
0.035,-1.917,2.994,-476.562,-213.562,0.977
-0.083,-1.649,3.286,-484.131,-167.969,-40.283
0.168,-0.914,3.947,-434.631,-56.396,-22.766
0.502,-0.684,3.957,-379.150,-43.457,-17.578
0.273,-0.295,4.149,-273.560,-28.137,-47.241
0.238,-0.175,4.144,-205.078,-50.659,-41.809
-0.092,-0.098,3.713,-67.566,-59.021,-43.213
-0.337,-0.187,3.356,-9.705,-58.228,-40.161
-0.646,-0.532,2.374,78.064,-51.514,-16.052
-0.682,-0.620,1.850,94.788,-45.227,-0.183
-0.533,-0.556,1.256,84.045,-25.818,25.452
-0.363,-0.450,1.154,70.007,-9.094,34.668
-0.108,-0.320,1.019,48.645,16.357,31.799
-0.011,-0.246,0.902,41.321,16.541,26.672
0.040,-0.202,0.827,35.278,11.292,18.311
-0.027,-0.174,0.841,13.733,-4.700,2.869
-0.065,-0.163,0.903,5.859,-13.000,-2.014
-0.197,-0.176,0.998,-6.287,-18.982,-9.644
-0.251,-0.208,1.039,-8.728,-18.799,-12.878
-0.298,-0.237,1.150,-16.785,-7.568,-12.817
-0.331,-0.261,1.224,-18.311,0.366,-12.634
-0.343,-0.229,1.283,-20.142,13.977,-4.333
-0.324,-0.207,1.293,-16.907,18.250,1.465
-0.261,-0.176,1.301,-13.184,19.836,7.568
-0.136,-0.134,1.244,-2.991,19.104,14.160
-0.089,-0.119,1.194,1.038,17.761,15.137
0.000,-0.098,1.074,5.310,10.925,13.550
0.019,-0.086,1.036,7.202,9.277,12.024
0.007,-0.088,1.012,6.165,5.981,8.606
-0.012,-0.104,0.952,5.676,1.709,2.258
-0.035,-0.107,0.935,2.258,0.183,0.122
-0.053,-0.109,0.951,-0.122,0.793,-1.648
-0.066,-0.117,0.979,-4.089,7.629,-2.441
-0.094,-0.118,0.983,-6.165,11.963,-2.930
-0.090,-0.109,0.996,-7.751,21.057,-2.136
-0.078,-0.111,1.000,-9.888,25.696,-2.563
-0.056,-0.086,1.005,-9.460,28.809,-4.089
-0.056,-0.108,0.990,-8.057,26.855,-4.822
-0.059,-0.118,0.980,-7.019,22.095,-5.676
-0.074,-0.118,0.971,-4.028,9.338,-5.310
-0.081,-0.104,0.961,-2.686,4.395,-5.798
-0.128,-0.126,0.903,-0.366,-0.549,-7.446
-0.166,-0.144,0.867,-1.282,-2.258,-7.263
-0.148,-0.150,0.842,-9.155,-4.150,-2.258
-0.131,-0.124,0.869,-13.184,-4.150,-3.540
-0.130,-0.109,0.877,-15.503,-4.272,-4.395
-0.118,-0.083,0.922,-18.921,-4.272,-6.042
-0.125,-0.083,0.927,-18.188,-5.981,-7.080
-0.164,-0.102,0.950,-15.564,-10.864,-10.681
-0.205,-0.132,0.947,-14.221,-12.268,-9.949
-0.236,-0.143,0.944,-15.930,-6.897,-8.423
-0.245,-0.134,0.958,-18.982,-2.502,-7.324
-0.248,-0.127,1.017,-20.813,1.892,-3.845
-0.228,-0.126,1.014,-18.494,1.892,-2.441
-0.208,-0.104,1.035,-17.395,-0.610,-1.099
-0.192,-0.103,1.032,-14.404,-2.930,-0.366
-0.180,-0.105,1.018,-9.766,-9.338,-0.916
-0.180,-0.125,0.983,-8.423,-11.169,-1.770
-0.195,-0.134,0.965,-8.484,-13.367,-0.916
-0.192,-0.144,0.935,-12.024,-15.808,0.610
-0.182,-0.131,0.956,-15.076,-15.198,1.404
-0.176,-0.111,1.025,-18.982,-12.817,-1.343
-0.170,-0.109,1.045,-17.517,-11.597,-1.465
-0.193,-0.115,1.021,-14.954,-10.498,0.793
-0.177,-0.117,1.002,-14.526,-10.437,1.343
-0.135,-0.106,1.021,-17.090,-8.789,3.174
-0.118,-0.097,1.035,-17.761,-8.240,3.052
-0.122,-0.101,1.038,-16.785,-9.766,1.404
-0.129,-0.114,1.044,-16.418,-10.010,0.732
-0.129,-0.107,1.052,-15.747,-11.475,1.038
-0.125,-0.098,1.041,-15.015,-13.611,2.625
-0.115,-0.099,1.052,-13.367,-14.526,2.625
-0.101,-0.093,1.031,-12.207,-13.245,1.709
-0.111,-0.087,1.031,-12.146,-11.169,1.465
-0.115,-0.092,1.033,-12.268,-9.094,0.671
-0.107,-0.107,1.012,-11.597,-8.911,1.221
-0.106,-0.113,0.997,-14.038,-10.620,0.916
-0.100,-0.118,1.011,-14.282,-11.230,-0.488
-0.103,-0.109,1.025,-15.259,-11.230,-1.038
-0.097,-0.104,1.062,-15.869,-11.902,-0.854
-0.101,-0.096,1.060,-14.099,-11.902,-1.404
-0.112,-0.106,1.058,-12.939,-11.780,-1.465
-0.109,-0.104,1.045,-11.780,-11.414,-1.282
-0.109,-0.111,1.034,-12.390,-11.169,-2.197
-0.118,-0.127,1.034,-11.414,-10.681,-2.625
-0.115,-0.117,1.043,-12.451,-9.705,-1.282
-0.120,-0.093,1.050,-12.878,-9.399,-1.526
-0.115,-0.095,1.057,-12.085,-9.827,-1.465
-0.119,-0.095,1.052,-9.644,-10.071,-1.465
-0.141,-0.115,1.027,-7.690,-9.460,-1.465
-0.148,-0.124,1.023,-8.362,-9.399,-1.282
-0.130,-0.115,1.023,-11.658,-10.254,-0.488
-0.126,-0.112,1.039,-10.925,-9.033,-0.061
-0.107,-0.115,1.043,-12.207,-7.690,-0.610
-0.105,-0.103,1.049,-11.536,-8.606,-1.038

0.262,-0.168,-2.239,15.381,-38.208,55.664
0.330,-0.228,-2.383,-11.963,-45.715,54.932
0.415,-0.310,-2.514,-86.914,-59.448,47.058
0.551,-0.416,-2.642,-133.301,-66.223,37.476
0.567,-0.452,-2.588,-242.676,-78.674,8.789
0.477,-0.603,-2.158,-296.204,-81.604,-7.324
0.409,-0.657,-1.920,-373.474,-100.159,-21.301
0.412,-0.734,-1.535,-403.992,-115.417,-24.597
0.470,-0.832,-1.223,-460.266,-149.536,-28.137
0.542,-0.883,-1.130,-481.750,-165.039,-30.396
0.691,-1.024,-0.891,-528.442,-190.552,-35.828
0.800,-1.098,-0.798,-553.833,-200.806,-40.039
1.038,-1.298,-0.617,-606.201,-221.497,-44.800
1.174,-1.396,-0.508,-635.437,-229.248,-54.688
1.277,-1.655,-0.187,-692.627,-228.210,-90.088
1.132,-1.977,0.349,-739.319,-214.417,-135.010
1.077,-2.131,0.554,-749.939,-213.745,-153.992
0.895,-2.353,1.724,-749.878,-214.050,-178.589
0.749,-2.342,2.210,-735.291,-231.445,-171.936
0.434,-2.119,3.028,-681.274,-226.929,-153.320
0.226,-2.027,3.411,-643.372,-196.472,-146.362
-0.380,-1.668,3.450,-537.292,-117.371,-136.658
-0.746,-1.536,3.037,-454.956,-19.165,-108.521
-0.754,-1.439,2.905,-433.044,17.456,-90.637
-0.515,-1.399,2.859,-402.283,72.388,-49.377
-0.405,-1.019,3.007,-378.357,48.218,-34.302
-0.137,-0.632,3.120,-319.702,-86.487,-21.240
-0.010,-0.430,3.216,-286.865,-119.202,0.488
0.202,-0.135,3.251,-210.754,-163.086,20.874
0.202,-0.002,3.245,-181.274,-163.452,21.790
0.099,0.042,3.165,-117.798,-100.159,1.587
-0.005,0.078,3.109,-94.666,-63.721,-12.207
-0.086,0.074,2.844,-42.664,6.836,-19.958
-0.155,0.026,2.618,-18.066,22.766,-21.301
-0.184,-0.020,2.372,21.729,14.038,-9.705
-0.179,-0.069,1.856,32.776,3.418,0.488
-0.160,-0.060,1.637,38.818,-6.104,8.057
-0.049,-0.025,1.277,39.246,-18.127,9.399
-0.033,-0.007,1.175,33.142,-16.174,7.202
-0.044,0.025,1.050,18.311,-11.658,-3.845
-0.091,0.045,1.027,9.888,-12.329,-10.315
-0.127,0.067,1.031,-0.793,-14.221,-13.000
-0.173,0.083,1.106,-11.963,-14.099,-16.846
-0.204,0.083,1.126,-16.113,-13.184,-17.700
-0.245,0.055,1.174,-18.860,-5.127,-16.907
-0.253,0.056,1.199,-21.606,0.305,-16.296
-0.217,0.066,1.228,-22.400,14.465,-14.587
-0.204,0.065,1.227,-22.522,18.127,-12.756
-0.142,0.064,1.161,-17.639,17.090,-10.620
-0.121,0.062,1.117,-17.212,14.099,-10.132
-0.079,0.049,1.023,-16.052,6.653,-8.362
-0.081,0.037,0.989,-15.930,3.174,-10.498
-0.086,0.040,0.977,-17.395,0.122,-10.559
-0.084,0.026,0.935,-23.071,-4.211,-11.719
-0.082,0.021,0.919,-25.330,-4.333,-12.817
-0.065,0.025,0.914,-33.020,-4.028,-12.756
-0.047,0.010,0.928,-34.363,-3.235,-12.817
-0.064,0.021,0.978,-36.438,-0.122,-14.954
-0.065,0.027,1.002,-37.231,2.930,-15.625
-0.076,0.031,1.016,-35.889,6.104,-15.686
-0.084,0.010,1.022,-33.508,8.423,-14.709
-0.094,0.002,1.017,-30.579,6.897,-14.160
-0.094,0.007,1.016,-26.794,4.944,-12.756
-0.109,-0.005,1.010,-25.391,3.784,-12.878
-0.129,-0.010,0.996,-21.240,-1.404,-12.817
-0.141,-0.024,0.974,-18.066,-4.028,-12.634
-0.138,-0.035,0.946,-17.456,-3.967,-9.277
-0.146,-0.030,0.944,-19.592,-3.479,-10.315
-0.136,-0.014,0.959,-21.362,-0.061,-9.888
-0.141,-0.007,0.977,-21.790,1.160,-10.498
-0.146,0.008,0.994,-21.240,-1.404,-8.179
-0.144,-0.015,0.984,-19.226,-2.686,-7.202
-0.155,-0.019,0.971,-18.494,-8.545,-6.714
-0.167,-0.025,0.975,-17.944,-9.827,-5.981
-0.174,-0.020,0.981,-19.287,-8.728,-4.333
-0.176,-0.014,1.020,-19.470,-6.348,-3.479
-0.171,-0.002,1.034,-20.508,-4.211,-3.174
-0.150,0.004,1.074,-19.043,-2.014,-1.343
-0.136,-0.008,1.093,-17.944,-2.014,-1.221
-0.135,-0.005,1.080,-17.456,-3.113,-1.282
-0.127,-0.015,1.072,-15.930,-5.249,-1.038
-0.113,-0.010,1.072,-14.038,-7.202,-1.160
-0.122,0.001,1.080,-13.245,-8.728,-1.465
-0.121,0.004,1.068,-12.939,-9.399,-0.671
-0.134,0.008,1.038,-11.780,-9.705,-0.977
-0.137,0.004,1.018,-10.742,-9.460,-0.488
-0.116,-0.010,1.015,-12.451,-8.911,-0.366
-0.107,0.003,1.013,-14.954,-7.202,-1.343
-0.080,0.004,1.039,-18.127,-3.967,-3.540
-0.093,0.014,1.060,-19.409,-4.272,-4.333
-0.080,-0.000,1.051,-17.334,-7.324,-3.357
-0.081,-0.001,1.058,-16.907,-10.986,-3.540
-0.072,0.002,1.049,-17.883,-9.033,-5.981
-0.090,0.015,1.051,-18.433,-7.690,-6.531
-0.090,0.018,1.056,-18.005,-5.371,-6.836
-0.107,0.005,1.061,-17.395,-2.319,-8.179
-0.121,-0.004,1.053,-17.029,-1.404,-8.728
-0.127,-0.019,1.051,-15.320,-1.099,-6.958
-0.132,-0.018,1.042,-14.832,-2.502,-6.531
-0.136,-0.023,1.077,-12.817,-4.395,-3.052
-0.128,-0.011,1.085,-12.573,-4.272,-1.343
-0.112,-0.017,1.077,-7.507,-4.761,0.305
-0.103,-0.005,1.060,-7.019,-6.042,0.061
-0.099,-0.024,1.034,-5.676,-5.554,0.000
-0.092,-0.004,0.990,-7.202,-4.028,0.610
-0.076,0.003,0.987,-7.690,-4.028,-0.122
-0.084,-0.006,0.987,-8.118,-1.648,-1.221
-0.094,-0.011,0.995,-10.010,-3.784,-2.991
-0.100,-0.011,1.002,-9.705,-4.395,-3.601
-0.125,-0.034,1.002,-10.071,-5.981,-4.761
-0.147,-0.039,1.001,-11.292,-5.920,-2.930
-0.160,-0.025,1.007,-13.489,-7.629,-2.075
-0.139,-0.002,1.009,-13.977,-7.996,0.122
-0.115,0.024,1.024,-13.184,-7.019,0.977
-0.112,0.010,1.023,-12.329,-7.690,0.061
-0.107,0.003,1.032,-13.123,-5.981,-0.793
-0.128,-0.008,1.024,-13.611,-5.859,-0.732
-0.119,-0.008,1.030,-12.817,-7.568,0.427
-0.104,-0.011,1.029,-13.367,-9.644,1.648

0.201,-0.159,-2.142,42.603,-55.664,43.701
0.219,-0.182,-2.314,16.296,-56.030,42.542
0.312,-0.175,-2.381,-50.598,-58.533,39.917
0.348,-0.282,-2.506,-89.172,-68.115,33.569
0.348,-0.335,-2.459,-181.396,-64.697,11.230
0.250,-0.444,-2.091,-223.206,-58.167,2.930
0.191,-0.496,-1.899,-269.958,-77.209,-1.099
0.094,-0.593,-1.729,-284.119,-91.980,2.136
0.077,-0.616,-1.691,-296.997,-108.582,11.841
0.039,-0.710,-1.695,-323.730,-139.099,32.288
0.179,-0.789,-1.793,-353.516,-168.640,53.345
0.261,-0.798,-1.781,-379.150,-174.622,55.786
0.374,-0.852,-1.590,-446.533,-179.993,47.668
0.404,-0.890,-1.434,-478.638,-180.359,38.696
0.479,-0.962,-1.081,-549.011,-179.443,17.029
0.503,-1.016,-0.882,-578.064,-176.453,5.371
0.550,-1.177,-0.474,-628.174,-173.096,-17.822
0.551,-1.243,-0.280,-651.123,-174.133,-25.635
0.646,-1.408,0.116,-684.387,-181.885,-38.025
0.738,-1.549,0.283,-689.514,-203.674,-37.292
1.066,-1.947,0.547,-685.181,-269.775,-26.672
1.288,-2.201,0.666,-685.364,-311.462,-15.991
1.693,-2.556,1.186,-706.482,-353.760,-11.658
1.759,-2.392,2.350,-750.183,-269.653,-50.598
1.627,-2.199,2.972,-763.550,-201.599,-101.379
0.461,-1.911,3.911,-711.670,-16.296,-204.102
-0.108,-1.866,3.959,-643.188,56.396,-219.604
-0.748,-1.613,3.727,-499.939,107.483,-183.411
-0.833,-1.431,3.588,-448.975,87.830,-139.282
-0.729,-0.931,3.440,-351.685,-19.287,-45.959
-0.336,-0.656,3.138,-304.016,-56.946,-6.104
-0.132,-0.274,2.977,-200.378,-199.280,23.132
0.012,-0.346,2.839,-168.396,-250.122,28.320
0.204,-0.023,2.696,-110.657,-190.369,71.289
0.372,0.076,2.594,-95.276,-138.245,62.500
0.412,0.154,2.341,-72.266,-28.748,12.390
0.233,0.112,2.260,-64.636,1.526,-10.864
0.039,0.098,2.090,-33.875,-7.568,-18.127
-0.098,0.031,1.971,-16.846,-22.400,-12.146
-0.203,0.005,1.710,7.385,-54.260,2.014
-0.207,-0.008,1.590,12.756,-57.495,9.460
-0.174,0.002,1.502,14.221,-56.396,12.268
-0.156,-0.009,1.354,12.390,-51.514,14.038
-0.149,-0.006,1.318,10.132,-46.082,15.930
-0.032,0.076,1.271,-0.427,-24.963,17.639
0.025,0.139,1.257,-7.019,-12.634,12.512
0.031,0.120,1.226,-15.442,2.014,1.892
0.037,0.125,1.212,-18.250,4.089,0.916
0.037,0.112,1.208,-21.240,4.517,0.061
0.018,0.098,1.215,-22.034,-1.465,-2.563
-0.005,0.091,1.224,-22.949,-4.639,-3.052
-0.014,0.095,1.249,-24.475,-7.629,-4.211
-0.042,0.098,1.258,-22.583,-11.292,-3.113
-0.041,0.105,1.264,-22.583,-12.329,-0.916
-0.059,0.100,1.263,-17.944,-14.343,2.991
-0.064,0.110,1.253,-15.686,-12.085,4.456
-0.007,0.113,1.220,-13.428,6.409,2.441
0.004,0.102,1.209,-13.855,17.944,-0.977
0.013,0.107,1.175,-13.123,25.085,-2.075
0.063,0.111,1.106,-11.841,27.771,-2.869
0.074,0.101,1.095,-9.949,23.499,-2.808
0.083,0.068,1.042,-7.019,11.902,-2.747
0.064,0.058,1.014,-6.287,7.324,-2.930
0.086,0.061,0.999,-6.653,2.075,-3.967
0.094,0.063,0.978,-7.690,-1.221,-6.531
0.099,0.049,0.963,-8.606,-2.930,-7.568
0.084,0.066,0.955,-9.827,-4.333,-8.057
0.056,0.055,0.934,-10.864,-4.333,-10.193
0.036,0.043,0.919,-11.536,-3.906,-10.315
-0.016,0.025,0.906,-15.442,-0.122,-12.756
-0.013,0.018,0.903,-18.616,2.075,-12.634
-0.012,0.027,0.911,-23.682,2.625,-10.437
-0.006,0.047,0.935,-23.743,-0.061,-10.193
-0.005,0.051,0.950,-23.560,-2.441,-10.193
-0.045,0.066,0.954,-21.606,-5.920,-10.498
-0.058,0.056,0.942,-20.386,-8.301,-10.132
-0.093,0.032,0.907,-19.287,-12.329,-8.789
-0.108,0.031,0.911,-19.836,-12.451,-8.301
-0.105,0.031,0.928,-22.217,-15.625,-5.615
-0.094,0.041,0.944,-23.071,-16.418,-4.639
-0.108,0.015,0.950,-25.574,-16.052,-2.258
-0.107,0.018,0.955,-27.100,-15.198,-1.465
-0.069,0.031,0.984,-28.259,-14.221,-0.305
-0.053,0.040,1.010,-30.029,-11.414,0.610
-0.036,0.048,1.027,-30.518,-9.216,0.549
-0.031,0.057,1.044,-30.273,-7.141,-1.526
-0.039,0.067,1.068,-28.625,-7.935,-1.526
-0.039,0.055,1.060,-23.193,-12.207,-1.831
-0.050,0.038,1.061,-21.362,-13.611,-1.465
-0.051,0.021,1.054,-20.508,-15.503,-2.197
-0.048,0.004,1.034,-20.203,-13.794,1.648
-0.052,0.011,1.018,-23.254,-9.338,4.517
-0.009,0.031,1.040,-25.696,-6.226,5.371
0.013,0.045,1.065,-27.344,-5.798,5.798
0.057,0.073,1.062,-24.170,-4.089,3.113
0.059,0.079,1.063,-23.437,-5.127,2.380
0.058,0.072,1.070,-22.522,-7.080,1.343
0.048,0.070,1.056,-19.348,-12.085,0.061
0.043,0.060,1.053,-17.639,-13.062,0.000
0.017,0.039,1.059,-17.029,-14.771,-1.404
0.003,0.033,1.066,-17.212,-14.893,-1.221
0.005,0.034,1.069,-17.090,-14.832,-1.465
0.019,0.037,1.084,-17.029,-11.902,-0.244
0.017,0.052,1.083,-16.602,-9.460,0.427
0.044,0.055,1.089,-16.357,-4.211,-1.160
0.048,0.062,1.088,-16.479,-3.479,-1.404
0.048,0.053,1.083,-14.343,-5.676,-1.648
0.046,0.059,1.063,-12.512,-6.531,-1.221
0.047,0.026,1.045,-13.062,-7.751,-1.587
0.060,0.037,1.022,-14.648,-10.620,-1.282
0.064,0.031,1.033,-14.954,-11.536,-1.587
0.050,0.037,1.070,-16.663,-12.695,-3.540
0.055,0.042,1.085,-15.686,-12.024,-3.662
0.034,0.029,1.089,-15.503,-11.475,-4.700
0.028,0.041,1.072,-13.794,-9.277,-2.991
0.039,0.049,1.057,-13.550,-9.399,-2.197
0.037,0.037,1.063,-13.367,-6.775,-4.333
0.035,0.033,1.057,-13.489,-6.653,-4.395
0.022,0.032,1.056,-12.939,-4.456,-4.150

-0.233,-0.177,-2.185,-37.842,-94.666,56.458
-0.233,-0.195,-2.198,-70.435,-96.924,61.584
-0.185,-0.270,-2.173,-135.315,-107.361,71.411
-0.170,-0.306,-2.090,-164.673,-117.371,76.477
-0.154,-0.366,-1.904,-219.299,-133.423,85.571
-0.135,-0.392,-1.778,-245.544,-134.766,85.571
-0.053,-0.408,-1.498,-290.649,-126.282,84.717
0.021,-0.416,-1.371,-309.875,-119.568,82.825
0.096,-0.418,-1.283,-342.407,-112.915,75.073
0.228,-0.464,-1.383,-364.502,-117.004,68.848
0.293,-0.497,-1.417,-384.705,-120.300,64.270
0.391,-0.641,-1.388,-434.692,-127.441,50.903
0.437,-0.708,-1.324,-461.548,-134.277,44.312
0.571,-0.860,-1.096,-520.081,-146.973,30.762
0.647,-0.956,-0.888,-551.758,-150.269,21.423
0.743,-1.142,-0.372,-600.159,-151.794,0.427
0.797,-1.259,-0.140,-618.774,-150.696,-12.756
0.944,-1.539,0.466,-642.273,-138.672,-46.997
0.907,-1.636,0.894,-646.606,-124.207,-68.787
0.655,-1.688,1.724,-649.536,-106.995,-100.830
0.564,-1.632,2.023,-635.254,-120.544,-91.125
0.637,-1.542,2.253,-580.688,-150.330,-50.598
0.625,-1.544,2.257,-547.363,-119.324,-70.007
0.338,-1.611,2.229,-537.354,-92.468,-84.534
0.038,-1.617,2.162,-520.325,-73.975,-92.590
-0.041,-1.555,2.168,-509.094,-85.266,-83.252
-0.158,-1.430,2.579,-477.844,-107.605,-59.143
-0.262,-1.270,2.936,-459.534,-108.826,-46.448
-0.405,-0.983,3.577,-408.386,-27.954,-18.555
-0.446,-0.647,3.933,-367.615,-65.369,-15.015
-0.314,-0.225,4.100,-304.443,-59.570,-27.344
-0.289,-0.031,4.166,-253.052,-16.113,-9.949
0.176,0.257,3.703,-129.822,0.916,32.532
0.233,0.300,3.313,-79.773,-16.724,25.940
0.377,0.308,2.735,-3.113,-58.533,38.818
0.326,0.334,2.406,27.283,-70.007,36.926
0.271,0.297,2.067,60.669,-87.158,14.771
0.051,0.127,1.502,62.622,-84.961,3.906
-0.109,0.053,1.324,53.345,-68.481,-8.484
-0.393,-0.041,1.193,20.508,-37.598,-21.606
-0.468,-0.033,1.224,7.507,-27.161,-21.057
-0.409,0.077,1.308,-6.897,-28.687,-7.751
-0.334,0.128,1.322,-6.226,-30.884,1.221
-0.265,0.160,1.289,-4.456,-33.630,7.507
-0.169,0.178,1.225,-4.395,-33.569,9.155
-0.143,0.173,1.196,-6.287,-30.212,7.690
-0.123,0.160,1.169,-14.282,-16.479,-0.427
-0.146,0.155,1.181,-19.409,-8.850,-5.005
-0.177,0.143,1.216,-24.902,-0.122,-9.460
-0.195,0.121,1.233,-24.902,0.366,-7.996
-0.202,0.118,1.248,-24.780,-0.427,-6.165
-0.189,0.131,1.259,-20.813,-1.587,0.000
-0.169,0.140,1.250,-18.188,-0.549,3.784
-0.093,0.153,1.218,-11.536,-1.038,8.911
-0.048,0.153,1.182,-7.935,0.427,8.545
-0.021,0.160,1.133,-5.737,1.282,8.545
0.034,0.145,1.008,-4.578,2.502,6.958
0.043,0.146,0.978,-6.348,4.395,4.639
0.053,0.132,0.942,-9.827,3.540,1.526
0.057,0.122,0.915,-15.991,1.587,-1.892
0.060,0.121,0.919,-19.653,2.319,-3.662
0.052,0.124,0.942,-23.743,4.456,-7.263
0.061,0.123,0.977,-27.344,7.141,-12.817
0.022,0.122,0.997,-26.794,8.240,-13.000
0.004,0.114,0.998,-23.010,4.211,-12.756
-0.001,0.121,0.985,-21.179,2.197,-10.864
0.005,0.115,0.985,-19.775,0.671,-11.169
-0.016,0.103,0.962,-16.357,2.258,-12.634
-0.034,0.105,0.949,-15.930,3.052,-12.878
-0.054,0.109,0.929,-13.977,1.465,-11.658
-0.057,0.097,0.931,-12.756,0.183,-10.315
-0.060,0.104,0.926,-11.963,-1.587,-8.789
-0.065,0.093,0.904,-11.536,-2.502,-7.996
-0.080,0.087,0.881,-12.695,-2.563,-8.728
-0.062,0.098,0.856,-20.020,1.709,-9.216
-0.059,0.100,0.864,-24.109,3.113,-9.338
-0.077,0.110,0.920,-29.419,4.333,-12.878
-0.079,0.121,0.956,-30.640,1.404,-13.062
-0.121,0.140,0.991,-28.748,-1.892,-12.695
-0.129,0.116,1.006,-27.466,-4.578,-11.719
-0.135,0.118,1.008,-26.062,-6.165,-11.658
-0.148,0.104,1.012,-21.912,-9.338,-7.385
-0.159,0.107,1.009,-22.339,-9.155,-6.653
-0.156,0.093,1.017,-21.729,-6.287,-4.822
-0.150,0.099,1.023,-23.132,-4.822,-3.601
-0.143,0.091,1.030,-24.658,-4.456,-2.014
-0.134,0.099,1.041,-24.536,-4.150,-2.014
-0.121,0.100,1.048,-23.437,-7.202,-1.404
-0.110,0.097,1.063,-22.217,-8.667,-1.221
-0.114,0.094,1.062,-20.264,-10.986,-1.221
-0.094,0.087,1.053,-18.677,-13.489,1.587
-0.082,0.107,1.065,-19.226,-14.038,1.099
-0.051,0.122,1.059,-18.250,-11.902,0.305
-0.052,0.127,1.058,-17.700,-10.559,-1.099
-0.067,0.111,1.040,-15.503,-8.545,-1.648
-0.086,0.101,1.027,-15.503,-7.324,-3.052
-0.083,0.093,1.022,-17.395,-5.859,-4.883
-0.093,0.079,1.011,-20.691,-6.714,-4.150
-0.085,0.074,1.026,-21.118,-7.324,-3.357
-0.058,0.083,1.045,-22.949,-11.108,-1.953
-0.050,0.093,1.053,-21.240,-11.780,-2.441
-0.056,0.095,1.073,-20.508,-12.756,-1.404
-0.064,0.097,1.076,-19.043,-12.268,-2.380
-0.073,0.104,1.061,-17.273,-10.254,-1.465
-0.062,0.100,1.057,-16.724,-8.301,-2.686
-0.072,0.083,1.044,-15.625,-6.653,-3.662
-0.065,0.072,1.022,-16.113,-6.775,-2.258
-0.063,0.079,1.018,-16.602,-7.385,-1.282
-0.045,0.078,1.027,-16.663,-8.850,-1.587
-0.039,0.085,1.041,-16.235,-9.888,-1.282
-0.041,0.082,1.038,-15.869,-9.949,-1.465
-0.028,0.089,1.033,-15.869,-8.972,-1.404
-0.032,0.088,1.039,-15.503,-7.202,-3.174
-0.031,0.082,1.034,-15.503,-7.446,-3.540
-0.034,0.082,1.035,-14.893,-7.385,-3.784
-0.063,0.064,1.012,-15.076,-6.165,-4.578
-0.051,0.077,1.009,-16.785,-5.859,-3.784
-0.062,0.067,1.018,-16.602,-6.775,-4.089
-0.067,0.078,1.030,-17.273,-8.118,-3.418

0.229,-0.079,-2.418,113.403,-90.759,81.177
0.258,-0.180,-2.722,86.365,-88.623,75.073
0.380,-0.369,-3.328,-6.042,-74.890,51.270
0.440,-0.411,-3.557,-78.918,-69.275,32.715
0.473,-0.489,-3.593,-249.084,-63.904,-17.212
0.394,-0.684,-3.066,-316.895,-72.510,-35.828
0.276,-0.881,-2.438,-408.813,-109.558,-51.941
0.238,-0.935,-2.202,-438.110,-124.817,-55.786
0.265,-0.979,-1.777,-482.239,-142.761,-58.594
0.295,-1.000,-1.620,-499.573,-153.931,-59.570
0.440,-1.070,-1.406,-532.532,-169.373,-65.552
0.503,-1.124,-1.297,-557.190,-169.006,-75.195
0.617,-1.340,-1.027,-614.258,-165.466,-103.577
0.692,-1.637,-0.602,-672.119,-166.138,-131.958
0.723,-1.783,-0.344,-696.289,-168.945,-144.653
0.864,-1.955,0.174,-725.830,-183.960,-162.292
0.900,-1.983,0.517,-727.539,-191.467,-169.067
0.919,-2.068,1.226,-700.562,-230.225,-176.270
1.165,-2.168,1.550,-659.668,-284.546,-154.358
1.147,-2.440,1.967,-568.359,-403.870,-101.135
1.200,-2.552,2.058,-536.072,-434.998,-41.687
0.991,-2.659,2.341,-545.776,-370.117,-51.270
0.463,-2.839,2.753,-573.669,-159.729,-109.436
0.188,-2.724,3.016,-581.604,-58.533,-130.920
-0.075,-2.246,3.519,-560.425,43.213,-135.193
-0.056,-1.822,3.514,-528.381,49.561,-134.338
-0.578,-1.169,4.298,-418.396,-0.793,-90.393
-0.413,-0.868,4.338,-335.510,-108.337,-69.946
-0.230,-0.254,4.089,-183.350,-196.472,-15.320
-0.082,-0.185,3.758,-112.183,-215.515,5.615
-0.109,-0.270,2.979,-18.311,-200.500,16.724
-0.194,-0.250,2.684,-2.197,-163.086,14.648
-0.310,-0.155,2.406,4.700,-59.937,10.803
-0.262,-0.114,2.249,11.230,-17.944,13.489
-0.275,-0.110,1.855,27.344,18.188,8.179
-0.251,-0.112,1.681,33.630,15.381,12.390
-0.153,-0.093,1.411,39.063,-13.184,18.433
-0.109,-0.082,1.321,39.490,-24.780,19.470
-0.056,-0.080,1.255,32.104,-35.339,12.512
-0.067,-0.067,1.195,27.100,-36.621,9.277
-0.092,-0.042,1.193,21.118,-38.574,4.883
-0.147,-0.006,1.195,8.911,-38.635,0.305
-0.157,0.006,1.198,4.883,-40.466,0.366
-0.199,0.005,1.186,-0.854,-40.527,-1.282
-0.217,-0.002,1.196,-4.395,-37.048,-1.038
-0.226,0.003,1.220,-10.864,-14.648,-1.831
-0.203,-0.001,1.267,-13.611,-3.357,-2.563
-0.183,0.018,1.286,-16.052,4.028,-3.296
-0.129,0.037,1.317,-13.123,4.395,-2.380
-0.125,0.050,1.299,-9.888,1.404,-1.282
-0.105,0.006,1.220,-2.502,-5.615,1.587
-0.088,0.014,1.190,-3.296,-7.141,2.075
-0.088,0.019,1.175,-2.686,-4.700,1.465
-0.104,0.036,1.124,-3.418,-3.906,-0.793
-0.096,0.061,1.105,-2.136,-4.150,-1.038
-0.078,0.045,1.076,0.305,-2.991,-0.183
-0.070,0.035,1.060,-0.305,-2.197,-1.526
-0.060,0.029,1.035,-0.366,-0.427,-1.343
-0.042,0.016,0.997,-2.502,6.409,-1.465
-0.008,0.005,0.992,-2.808,9.094,-0.610
0.023,0.006,0.972,-5.737,5.676,-0.305
0.054,0.012,0.984,-5.249,3.723,0.122
0.059,0.036,0.978,-5.432,2.136,-1.831
0.062,0.043,0.970,-4.211,0.000,-4.822
0.007,0.025,0.920,-4.456,-0.549,-7.385
-0.004,0.019,0.896,-4.272,-0.916,-7.690
-0.035,-0.011,0.871,-7.996,-3.296,-8.362
-0.038,-0.003,0.874,-10.498,-4.089,-8.057
-0.066,0.013,0.879,-13.306,-3.357,-9.338
-0.082,0.003,0.880,-14.771,-6.226,-8.789
-0.088,0.005,0.873,-15.930,-7.507,-8.789
-0.104,0.035,0.892,-19.348,-11.719,-6.714
-0.100,0.039,0.891,-20.203,-14.893,-6.531
-0.123,0.034,0.883,-19.470,-14.893,-6.653
-0.139,0.025,0.886,-21.545,-14.404,-8.057
-0.149,0.013,0.911,-25.391,-13.123,-7.263
-0.154,0.007,0.917,-27.344,-12.024,-6.409
-0.148,0.024,0.963,-29.541,-13.611,-5.005
-0.150,0.022,0.990,-29.358,-11.475,-4.578
-0.141,0.020,0.999,-30.701,-11.963,-3.479
-0.130,0.017,1.034,-31.433,-11.230,-3.296
-0.136,0.013,1.042,-30.457,-11.536,-2.686
-0.117,0.020,1.041,-28.198,-14.099,-1.282
-0.120,0.017,1.043,-27.649,-14.343,-1.404
-0.128,0.016,1.057,-26.855,-14.099,-1.526
-0.119,0.015,1.066,-26.123,-14.282,-0.244
-0.112,0.011,1.054,-23.437,-12.085,0.427
-0.108,0.004,1.053,-23.804,-12.634,0.671
-0.088,-0.001,1.057,-24.841,-11.047,0.488
-0.090,0.002,1.085,-25.940,-9.766,0.244
-0.089,0.003,1.103,-24.963,-9.521,0.366
-0.088,0.009,1.120,-22.339,-9.155,1.221
-0.080,0.004,1.117,-20.996,-8.667,1.160
-0.078,0.017,1.114,-19.348,-9.460,2.808
-0.074,0.017,1.101,-18.250,-10.437,3.418
-0.059,0.013,1.105,-17.883,-8.789,2.991
-0.045,0.008,1.086,-16.785,-8.423,3.784
-0.038,0.016,1.082,-16.846,-8.179,4.272
-0.028,0.004,1.077,-16.907,-7.935,3.113
-0.029,-0.013,1.080,-17.578,-8.118,2.808
-0.014,0.003,1.083,-17.212,-7.263,2.563
-0.009,0.010,1.103,-17.395,-6.531,1.770
-0.011,0.015,1.099,-15.686,-7.080,-0.244
-0.036,0.005,1.093,-14.404,-5.920,-1.160
-0.037,0.007,1.082,-14.038,-5.798,-1.526
-0.031,0.015,1.058,-12.085,-5.493,0.793
-0.019,0.004,1.065,-11.597,-5.859,0.732
-0.015,0.004,1.055,-11.719,-5.066,-1.404
-0.015,-0.016,1.033,-11.353,-4.883,-1.465
-0.023,-0.009,1.038,-11.902,-5.920,-1.526
-0.016,-0.010,1.037,-12.390,-7.568,-1.648
-0.011,0.003,1.045,-13.062,-7.324,-2.319
-0.025,0.008,1.055,-13.794,-5.798,-3.296
-0.021,0.019,1.054,-11.780,-5.249,-3.174
-0.047,-0.014,1.045,-11.780,-4.333,-4.700
-0.063,-0.010,1.044,-12.390,-5.249,-3.967
-0.051,-0.002,1.042,-11.108,-4.028,-2.930
-0.052,0.006,1.052,-12.024,-2.563,-3.235
-0.053,0.003,1.056,-11.902,-2.625,-4.639

0.135,0.106,-2.356,37.659,-69.763,77.576
0.189,0.049,-2.566,14.771,-77.637,76.843
0.246,-0.065,-2.784,-12.329,-81.848,70.557
0.302,-0.159,-3.125,-93.201,-71.411,43.457
0.368,-0.202,-3.162,-148.682,-63.110,25.024
0.344,-0.244,-2.849,-264.526,-54.626,-13.123
0.296,-0.288,-2.621,-312.378,-62.805,-27.405
0.332,-0.373,-2.203,-386.414,-85.938,-46.936
0.267,-0.462,-1.714,-441.528,-110.718,-62.744
0.261,-0.471,-1.485,-457.947,-124.939,-64.575
0.342,-0.515,-1.270,-474.976,-161.377,-52.917
0.458,-0.518,-1.192,-489.136,-171.692,-51.392
0.603,-0.549,-0.901,-530.518,-163.635,-69.092
0.604,-0.556,-0.696,-551.270,-150.452,-86.975
0.449,-0.633,-0.255,-575.745,-106.750,-122.437
0.290,-0.762,0.080,-582.458,-71.045,-144.897
0.125,-0.761,0.293,-577.454,-50.232,-154.907
-0.077,-0.895,0.721,-549.377,-35.095,-143.311
-0.102,-0.899,0.847,-524.658,-45.837,-130.554
0.069,-1.120,0.873,-464.722,-112.122,-81.116
0.274,-1.290,0.902,-439.392,-152.466,-60.181
0.579,-1.498,0.992,-421.997,-212.708,-31.677
0.616,-1.549,1.092,-429.077,-226.501,-28.137
0.542,-1.749,1.412,-449.707,-202.637,-40.588
0.492,-1.912,1.643,-460.205,-176.270,-49.988
0.523,-1.906,2.163,-477.844,-130.798,-51.331
0.595,-1.724,2.489,-474.854,-119.995,-52.490
0.342,-1.369,3.071,-432.129,-115.051,-61.218
0.082,-1.111,3.296,-358.582,-99.243,-41.687
-0.132,-0.896,3.394,-314.209,-121.399,-27.954
-0.145,-0.756,3.331,-251.587,-187.012,-19.104
-0.137,-0.472,3.516,-238.464,-143.555,-5.432
-0.052,-0.048,3.552,-176.636,-47.668,12.024
0.096,0.092,3.381,-134.949,-11.658,18.005
0.299,0.165,2.796,-58.167,25.330,19.775
0.286,0.176,2.497,-27.710,21.790,17.822
0.234,0.181,2.219,11.841,-38.269,8.301
0.113,0.104,1.746,22.339,-58.655,10.376
0.040,0.074,1.573,26.123,-63.171,12.878
-0.099,0.052,1.373,22.522,-61.035,5.615
-0.163,0.039,1.324,15.869,-47.668,0.916
-0.184,0.048,1.309,8.850,-37.720,-1.038
-0.166,0.054,1.315,-0.122,-30.762,1.038
-0.144,0.083,1.315,-2.136,-28.931,2.686
-0.091,0.142,1.281,-3.296,-29.602,8.301
-0.062,0.148,1.254,-2.380,-29.724,9.521
-0.036,0.153,1.227,-3.906,-28.992,8.484
-0.002,0.168,1.171,-8.057,-21.667,6.287
0.002,0.151,1.153,-13.123,-16.785,3.174
-0.002,0.127,1.145,-19.043,-8.301,-0.854
-0.010,0.132,1.170,-22.339,-6.348,-3.357
-0.025,0.133,1.226,-25.269,-6.775,-2.747
-0.033,0.138,1.249,-24.292,-6.104,-1.831
-0.046,0.149,1.271,-23.743,-6.165,-2.014
-0.036,0.139,1.228,-18.860,-3.662,-1.282
-0.028,0.144,1.209,-16.357,-0.916,-0.916
-0.009,0.129,1.149,-14.954,2.502,0.610
0.000,0.126,1.125,-13.367,4.700,1.221
0.044,0.129,1.115,-14.221,5.981,4.028
0.116,0.153,1.074,-13.794,5.920,3.601
0.126,0.145,1.063,-13.123,5.310,1.831
0.138,0.135,1.041,-12.268,3.723,1.465
0.148,0.130,1.049,-13.245,3.235,-1.465
0.142,0.133,1.041,-12.024,4.456,-3.540
0.122,0.109,1.020,-12.634,2.808,-5.676
0.119,0.099,0.993,-11.902,2.686,-5.310
0.108,0.078,0.977,-11.047,2.197,-6.287
0.104,0.091,0.948,-14.038,4.028,-7.324
0.092,0.092,0.966,-14.404,3.784,-8.728
0.078,0.095,0.977,-15.381,3.174,-9.399
0.038,0.081,0.978,-15.564,1.221,-9.949
0.025,0.101,0.987,-15.625,0.488,-8.789
0.033,0.098,0.999,-15.381,0.427,-9.888
0.031,0.083,0.997,-14.099,1.526,-10.010
-0.000,0.069,0.966,-13.916,2.258,-9.460
-0.004,0.072,0.927,-16.174,0.244,-7.751
0.018,0.089,0.933,-18.005,-0.183,-6.531
0.010,0.094,0.947,-21.179,-1.099,-9.216
0.005,0.093,0.959,-22.522,-2.380,-9.766
-0.006,0.087,0.957,-21.667,-3.174,-10.376
-0.037,0.077,0.956,-22.827,-5.676,-8.911
-0.053,0.083,0.950,-23.376,-5.432,-9.949
-0.057,0.079,0.987,-26.123,-3.662,-6.592
-0.049,0.094,0.991,-25.635,-3.784,-4.639
-0.043,0.097,0.999,-24.597,-7.385,-3.174
-0.029,0.095,1.009,-24.109,-7.935,-3.540
-0.020,0.094,1.014,-23.682,-7.996,-3.418
-0.017,0.090,1.013,-22.705,-7.751,-5.066
-0.025,0.074,1.005,-22.278,-7.568,-4.578
-0.029,0.060,0.985,-25.452,-7.935,-4.578
-0.021,0.068,1.016,-27.893,-6.409,-2.869
-0.022,0.098,1.075,-28.381,-4.211,-3.235
-0.022,0.093,1.088,-27.588,-4.761,-3.540
-0.021,0.098,1.077,-27.161,-5.188,-2.930
-0.015,0.095,1.062,-21.790,-5.005,-1.160
-0.004,0.089,1.065,-20.142,-5.554,-0.366
0.010,0.077,1.051,-19.104,-7.996,-0.732
0.018,0.082,1.047,-17.395,-7.019,-1.282
0.003,0.067,1.043,-17.456,-6.409,-1.282
0.030,0.076,1.044,-18.372,-6.958,-0.854
0.034,0.077,1.058,-17.944,-7.385,-0.732
0.038,0.082,1.064,-17.700,-5.859,-0.366
0.054,0.088,1.063,-16.113,-5.371,-1.343
0.045,0.087,1.053,-15.015,-6.042,-1.343
0.049,0.070,1.041,-14.832,-7.019,-2.625
0.046,0.080,1.043,-14.526,-6.958,-1.465
0.039,0.061,1.035,-14.160,-7.446,-2.380
0.027,0.066,1.033,-14.282,-6.531,-3.052
0.014,0.069,1.039,-16.235,-5.432,-2.930
0.029,0.075,1.042,-15.320,-5.310,-2.991
0.030,0.076,1.046,-15.442,-4.150,-2.808
0.024,0.071,1.043,-13.977,-4.150,-1.770
0.025,0.075,1.062,-12.573,-4.150,-1.953
0.027,0.067,1.046,-11.780,-4.089,-1.709
0.049,0.084,1.037,-11.169,-5.432,-1.282
0.043,0.076,1.033,-10.681,-5.066,-1.526
0.054,0.084,1.018,-12.512,-5.310,-2.869
0.047,0.077,1.038,-13.062,-3.967,-4.150
0.020,0.075,1.049,-13.000,-2.441,-5.859
