aX,aY,aZ,gX,gY,gZ
-0.282,1.076,1.198,-29.846,92.896,-2.747
-0.244,1.213,1.215,-27.771,90.637,-12.573
-0.387,1.087,1.290,-20.630,75.684,-23.865
-0.570,1.130,1.391,-10.071,66.040,-28.687
-0.568,1.220,1.260,-3.174,57.800,-28.687
-0.676,1.300,1.249,9.827,46.997,-26.917
-0.674,1.348,1.184,16.663,39.795,-22.461
-0.631,1.429,0.959,28.442,25.452,-13.428
-0.637,1.472,0.826,31.189,15.991,-11.597
-0.632,1.534,0.686,26.123,0.488,-2.075
-0.544,1.644,0.437,19.836,-4.883,0.244
-0.552,1.699,0.315,11.719,-7.996,3.113
-0.576,1.807,0.093,-11.108,-12.756,8.484
-0.576,1.862,0.035,-25.452,-17.212,9.094
-0.585,1.853,-0.047,-54.382,-37.659,11.047
-0.581,1.889,-0.270,-68.298,-51.453,14.038
-0.556,1.863,-0.445,-82.031,-68.420,16.907
-0.484,1.635,-0.851,-109.863,-103.638,26.123
-0.443,1.520,-1.107,-127.930,-118.591,27.466
-0.263,0.971,-1.485,-174.683,-131.653,43.884
-0.071,0.237,-1.708,-240.906,-103.516,56.213
0.067,-0.199,-1.688,-278.442,-78.125,61.157
0.480,-0.994,-1.206,-354.370,-14.954,57.556
0.678,-1.302,-0.841,-382.202,13.306,49.988
0.976,-2.033,-0.119,-392.822,28.259,21.851
1.071,-2.442,0.264,-377.563,22.278,3.906
1.019,-2.898,0.533,-312.866,-12.146,-27.283
0.734,-3.793,0.644,-288.940,-29.175,-33.813
0.499,-3.876,0.823,-282.654,15.991,-34.729
-0.359,-3.478,1.471,-287.292,38.757,-5.127
-0.319,-3.219,2.327,-278.137,141.602,45.654
-0.144,-1.916,3.438,-250.916,146.912,-21.667
-0.003,-1.465,3.581,-127.197,130.859,23.926
0.496,-1.090,3.117,-66.589,76.172,35.339
0.640,-1.007,2.689,-15.137,26.367,36.865
0.686,-0.960,1.673,48.706,-17.822,14.954
0.469,-0.821,1.358,70.740,3.296,-5.432
-0.083,-0.804,0.975,64.575,-62.561,-53.040
-0.309,-0.682,0.948,61.829,-74.768,-51.025
-0.647,-0.493,0.942,55.725,-67.322,-51.453
-0.752,-0.416,0.888,54.749,-60.303,-44.983
-0.764,-0.333,0.710,55.481,-36.743,-24.170
-0.696,-0.276,0.656,52.063,-15.747,-18.372
-0.541,-0.136,0.583,39.368,18.311,-9.338
-0.458,-0.071,0.547,33.447,20.996,-3.296
-0.394,-0.046,0.520,26.672,19.409,-1.404
-0.338,-0.087,0.528,10.925,12.817,-6.409
-0.348,-0.126,0.532,0.732,7.202,-10.132
-0.390,-0.201,0.641,-15.991,-2.502,-15.869
-0.430,-0.219,0.715,-23.926,-1.709,-16.418
-0.470,-0.260,0.890,-32.288,3.052,-12.085
-0.441,-0.244,0.968,-31.921,2.625,-7.996
-0.406,-0.234,1.092,-29.297,-0.916,-3.113
-0.377,-0.195,1.120,-26.672,-3.540,-0.732
-0.343,-0.192,1.091,-18.860,-11.719,5.676
-0.239,-0.190,1.032,-17.517,-14.282,6.653
-0.208,-0.190,1.010,-18.127,-16.418,7.263
-0.191,-0.179,1.026,-17.273,-14.709,5.066
-0.195,-0.195,1.038,-18.921,-13.184,2.991
-0.217,-0.213,1.076,-20.569,-9.827,-0.244
-0.215,-0.212,1.106,-22.095,-7.324,-0.244
-0.209,-0.204,1.141,-21.729,-2.380,-1.282
-0.222,-0.196,1.154,-20.569,-0.977,-0.366
-0.205,-0.177,1.147,-19.836,-3.540,1.465
-0.190,-0.167,1.140,-18.250,-5.432,2.808
-0.176,-0.161,1.125,-16.052,-4.578,3.174
-0.170,-0.167,1.127,-16.113,-3.113,2.686
-0.181,-0.178,1.137,-13.916,-1.709,2.380
-0.193,-0.201,1.135,-12.756,0.000,2.319
-0.195,-0.190,1.154,-12.085,0.854,2.258
-0.175,-0.197,1.147,-7.141,1.770,2.991
-0.166,-0.193,1.137,-4.333,2.075,4.150
-0.136,-0.198,1.113,-4.089,1.465,4.028
-0.109,-0.189,1.045,-2.563,0.854,4.211
-0.095,-0.170,1.026,-1.831,0.977,3.540
-0.108,-0.165,1.007,-2.625,1.953,2.258
-0.111,-0.153,1.000,-4.456,5.859,-0.793
-0.126,-0.153,0.999,-4.272,5.676,-1.648
-0.178,-0.140,1.019,-4.517,6.592,-5.127
-0.209,-0.136,1.036,-4.089,5.493,-5.188
-0.222,-0.143,1.025,-2.136,1.343,-4.761
-0.248,-0.133,1.017,-1.648,-3.845,-2.502
-0.251,-0.125,1.009,0.000,-4.211,-1.038
-0.225,-0.128,0.954,-0.549,-4.150,0.305
-0.206,-0.122,0.937,-2.136,-3.052,0.610
-0.186,-0.117,0.923,-4.578,-0.061,0.122
-0.171,-0.118,0.923,-7.263,0.793,-1.282
-0.170,-0.116,0.938,-8.057,2.563,-2.625
-0.198,-0.127,0.949,-8.972,6.104,-4.822
-0.220,-0.123,0.967,-10.132,6.287,-6.836
-0.269,-0.143,0.983,-10.193,2.319,-5.920
-0.277,-0.141,0.995,-8.057,-1.404,-3.601
-0.274,-0.139,0.996,-7.812,-4.150,-2.319
-0.279,-0.135,0.976,-5.981,-4.028,-1.282
-0.267,-0.126,0.953,-5.066,-4.089,0.854
-0.242,-0.125,0.924,-4.150,-2.441,2.808
-0.225,-0.115,0.915,-6.775,-1.404,2.747
-0.214,-0.114,0.912,-7.446,0.244,2.625
-0.200,-0.120,0.916,-8.484,0.793,1.465
-0.197,-0.124,0.932,-9.399,1.709,0.549
-0.214,-0.111,0.924,-11.414,-1.587,-1.465
-0.221,-0.111,0.931,-12.878,-3.723,-3.357
-0.240,-0.111,0.950,-14.771,-6.348,-3.967
-0.246,-0.122,0.969,-14.038,-6.958,-5.127
-0.260,-0.111,0.976,-13.123,-7.568,-3.723
-0.261,-0.119,0.972,-13.672,-9.338,-4.272
-0.257,-0.119,0.979,-13.794,-9.094,-1.526
-0.241,-0.112,0.976,-14.038,-8.240,-1.282
-0.248,-0.123,1.000,-13.123,-6.104,-1.099
-0.240,-0.120,1.009,-12.329,-4.639,-0.854
-0.250,-0.125,1.010,-13.184,-5.371,-0.671
-0.224,-0.138,0.996,-12.451,-7.446,-0.061
-0.221,-0.146,1.011,-12.451,-8.667,-0.916
-0.192,-0.150,1.013,-12.390,-11.353,-0.916
-0.188,-0.131,1.013,-11.597,-11.597,-1.465
-0.180,-0.126,1.010,-12.024,-12.451,-1.465
-0.187,-0.117,0.999,-11.658,-12.085,-1.831
-0.218,-0.131,1.004,-13.062,-8.728,-2.686
-0.220,-0.121,1.011,-15.259,-7.019,-3.235

-0.611,1.122,0.787,-17.639,5.493,-13.794
-0.657,1.173,0.823,-18.372,5.554,-15.869
-0.690,1.215,0.839,-16.785,5.554,-17.578
-0.727,1.269,0.846,-14.587,3.662,-19.958
-0.746,1.248,0.836,-14.404,2.563,-21.423
-0.738,1.266,0.833,-14.587,-3.296,-19.043
-0.730,1.304,0.838,-13.794,-7.690,-15.015
-0.594,1.325,0.903,-13.855,-21.545,-12.756
-0.504,1.330,0.963,-13.977,-29.785,-12.634
-0.361,1.434,1.102,-13.184,-41.016,-12.756
-0.320,1.500,1.167,-10.620,-46.387,-18.005
-0.293,1.549,1.166,-5.249,-62.439,-37.598
-0.285,1.588,1.075,-1.221,-76.782,-45.898
-0.286,1.573,0.950,4.333,-116.821,-57.373
-0.351,1.572,0.669,2.625,-136.963,-62.317
-0.373,1.517,0.506,-3.601,-157.898,-65.796
-0.384,1.416,0.164,-20.813,-193.115,-66.223
-0.468,1.325,0.010,-35.278,-203.247,-60.303
-0.475,1.217,-0.318,-80.017,-207.764,-34.363
-0.495,1.102,-0.472,-97.839,-213.867,-11.353
-0.453,0.937,-0.577,-141.113,-195.251,24.658
-0.269,0.633,-0.661,-170.288,-165.894,55.298
-0.164,0.451,-0.694,-182.617,-146.667,68.054
0.039,0.001,-0.696,-199.280,-113.953,85.815
0.145,-0.297,-0.587,-204.407,-89.294,89.050
0.229,-0.908,-0.649,-198.181,-43.701,103.149
0.287,-1.382,-0.773,-197.388,-23.560,104.980
0.499,-2.152,-0.814,-212.524,-6.958,111.938
0.551,-2.681,-0.818,-220.703,-1.404,96.191
0.757,-3.285,-0.574,-270.508,-11.902,80.200
0.897,-3.316,-0.159,-302.490,2.563,51.941
0.514,-3.071,1.102,-326.050,66.711,1.160
0.286,-2.783,1.691,-307.312,121.277,-28.870
-0.596,-1.958,2.898,-273.926,274.658,-111.084
-0.962,-1.509,3.323,-241.394,312.683,-122.009
-1.194,-0.684,3.969,-173.889,271.545,-50.598
-0.934,-0.602,3.692,-106.873,109.192,-21.912
-0.051,-0.564,2.866,11.108,46.936,59.082
0.253,-0.604,2.227,55.786,9.216,50.598
0.500,-0.734,0.989,84.961,-77.087,20.752
0.365,-0.700,0.747,87.524,-96.069,2.625
0.138,-0.719,0.589,74.951,-102.539,-24.902
-0.467,-0.512,0.736,42.969,-61.340,-75.195
-0.750,-0.441,0.811,35.217,-39.307,-86.304
-0.986,-0.264,0.819,22.461,-11.169,-73.547
-1.000,-0.186,0.760,17.395,2.075,-61.707
-0.865,-0.054,0.725,15.503,23.193,-33.447
-0.775,-0.072,0.675,14.404,24.780,-18.372
-0.549,-0.146,0.639,4.150,26.733,-5.188
-0.469,-0.175,0.682,-2.563,28.564,-2.808
-0.428,-0.198,0.756,-13.000,30.029,-9.888
-0.466,-0.249,0.884,-17.578,21.790,-12.329
-0.481,-0.270,0.942,-21.912,11.475,-14.771
-0.521,-0.268,1.033,-27.771,-8.545,-18.188
-0.515,-0.248,1.060,-27.039,-15.076,-16.235
-0.515,-0.210,1.031,-24.048,-21.484,-11.108
-0.496,-0.206,1.019,-23.621,-22.034,-8.911
-0.450,-0.156,0.982,-20.874,-14.221,-2.380
-0.426,-0.162,0.953,-19.958,-10.193,-0.366
-0.365,-0.171,0.941,-22.522,-7.996,1.587
-0.330,-0.174,0.961,-27.283,-9.155,0.366
-0.301,-0.172,1.023,-28.137,-10.071,-1.587
-0.314,-0.184,1.053,-27.710,-12.085,-2.197
-0.293,-0.198,1.105,-25.879,-15.869,-0.610
-0.297,-0.203,1.136,-24.292,-14.465,-1.160
-0.285,-0.217,1.124,-18.555,-9.521,0.183
-0.294,-0.226,1.117,-18.616,-7.141,0.305
-0.300,-0.210,1.104,-16.541,5.920,1.343
-0.299,-0.194,1.108,-16.235,10.986,1.770
-0.284,-0.186,1.103,-15.015,11.536,1.343
-0.275,-0.169,1.050,-10.864,12.451,1.770
-0.280,-0.177,1.027,-10.925,10.315,1.099
-0.261,-0.167,1.005,-10.925,7.141,0.610
-0.256,-0.151,1.013,-12.390,4.395,-1.282
-0.270,-0.157,1.027,-10.742,0.183,-1.892
-0.266,-0.141,1.020,-11.292,-2.869,-3.906
-0.265,-0.149,1.024,-12.634,-3.052,-4.028
-0.288,-0.131,1.040,-12.268,-1.526,-4.395
-0.302,-0.132,1.054,-10.925,-1.282,-4.333
-0.307,-0.116,1.046,-7.996,-1.099,-3.174
-0.306,-0.116,1.045,-7.385,-1.648,-1.343
-0.275,-0.130,1.012,-5.554,-1.099,-0.305
-0.272,-0.125,1.011,-5.798,-0.610,-1.587
-0.263,-0.131,0.986,-7.507,-0.366,-1.587
-0.269,-0.125,0.979,-8.789,-0.610,-1.343
-0.283,-0.116,0.988,-8.606,-1.465,-1.404
-0.279,-0.111,0.993,-9.094,-2.441,-2.930
-0.272,-0.111,0.987,-8.606,-2.747,-2.563
-0.309,-0.100,0.967,-7.629,-0.854,-3.723
-0.314,-0.097,0.947,-9.216,-2.258,-3.174
-0.290,-0.108,0.943,-10.193,-4.272,-2.380
-0.288,-0.098,0.946,-12.512,-4.150,-2.319
-0.282,-0.096,0.943,-12.878,-1.770,-3.784
-0.305,-0.086,0.962,-13.733,0.061,-5.188
-0.305,-0.083,0.952,-13.000,1.404,-3.235
-0.316,-0.083,0.946,-14.099,0.549,-3.174
-0.322,-0.096,0.950,-14.221,-0.427,-3.418
-0.332,-0.098,0.932,-13.489,1.892,-2.991
-0.330,-0.106,0.950,-15.564,1.831,-1.343
-0.301,-0.106,0.968,-16.235,1.709,-0.549
-0.290,-0.095,0.983,-15.076,1.465,0.244
-0.288,-0.098,0.988,-15.198,0.732,-1.038
-0.298,-0.113,0.958,-12.146,0.183,-0.549
-0.295,-0.107,0.948,-13.489,-1.648,-1.038
-0.279,-0.099,0.954,-15.625,-3.662,-3.418
-0.273,-0.094,0.943,-14.099,-1.831,-3.052
-0.287,-0.098,0.935,-13.977,-0.854,-3.235
-0.297,-0.108,0.928,-13.733,0.244,-3.662
-0.305,-0.103,0.934,-16.113,-1.587,-4.944
-0.304,-0.101,0.933,-16.418,-3.906,-5.432
-0.302,-0.110,0.939,-16.174,-4.578,-4.822
-0.303,-0.112,0.960,-16.663,-4.822,-3.784
-0.308,-0.115,0.972,-16.541,-4.150,-4.578
-0.315,-0.122,0.960,-14.282,-4.211,-3.357
-0.335,-0.131,0.956,-14.771,-4.272,-3.540
-0.329,-0.124,0.941,-14.343,-6.409,-4.028
-0.326,-0.118,0.945,-14.771,-7.202,-3.906
-0.320,-0.132,0.936,-15.198,-7.446,-4.700
-0.321,-0.137,0.920,-13.489,-7.935,-3.052

1.010,-1.667,0.062,-186.584,-171.143,56.885
0.977,-1.884,0.071,-193.604,-184.143,41.687
0.791,-2.218,0.341,-196.655,-98.694,28.687
0.641,-2.241,0.545,-197.815,-27.466,18.005
0.342,-2.188,1.069,-199.524,95.764,-8.362
0.156,-2.070,1.279,-191.345,135.437,-20.935
-0.575,-2.022,1.411,-177.307,180.786,-32.654
-0.755,-1.837,1.746,-179.810,192.261,-24.780
-0.848,-1.367,2.261,-168.396,196.472,-10.803
-0.768,-1.107,2.486,-151.917,185.730,1.038
-0.337,-0.817,2.479,-111.145,78.857,29.297
-0.032,-0.781,2.365,-78.918,34.973,39.917
0.333,-0.679,2.238,-21.179,-14.648,26.855
0.434,-0.739,2.100,1.343,-21.118,9.216
0.426,-0.714,1.932,29.236,-0.732,1.648
0.007,-0.613,1.622,66.040,38.940,-32.654
-0.203,-0.524,1.392,73.792,18.677,-45.044
-0.543,-0.409,0.902,79.773,-33.813,-50.964
-0.650,-0.388,0.696,75.378,-48.950,-48.096
-0.756,-0.245,0.459,59.265,-44.922,-36.438
-0.769,-0.199,0.422,50.964,-38.269,-28.687
-0.664,-0.138,0.490,31.433,-24.780,-16.663
-0.595,-0.108,0.550,22.888,-16.418,-12.451
-0.473,-0.126,0.644,11.780,-3.967,-7.935
-0.408,-0.156,0.671,7.935,-3.235,-5.737
-0.379,-0.180,0.722,2.258,-3.784,-7.263
-0.381,-0.175,0.850,-6.775,-8.667,-8.118
-0.372,-0.155,0.883,-10.498,-13.916,-8.545
-0.389,-0.131,0.965,-16.968,-25.146,-8.301
-0.395,-0.134,0.993,-17.151,-29.968,-7.507
-0.424,-0.118,1.006,-19.348,-31.555,-4.272
-0.415,-0.107,1.005,-18.188,-26.245,1.038
-0.331,-0.101,1.010,-18.066,-18.250,8.179
-0.283,-0.111,1.030,-17.761,-11.719,10.559
-0.197,-0.097,1.071,-18.188,-2.991,9.949
-0.163,-0.101,1.094,-18.555,0.061,9.277
-0.139,-0.092,1.104,-20.203,-1.038,6.836
-0.103,-0.077,1.102,-20.447,-10.315,4.211
-0.108,-0.083,1.103,-21.729,-13.123,1.343
-0.147,-0.074,1.110,-23.132,-13.672,-1.465
-0.161,-0.078,1.111,-22.644,-9.583,-1.648
-0.177,-0.082,1.121,-21.545,-0.366,-2.136
-0.177,-0.084,1.136,-19.165,5.493,-1.160
-0.163,-0.094,1.151,-14.160,7.202,-0.061
-0.136,-0.095,1.156,-11.108,7.263,1.160
-0.110,-0.104,1.143,-9.277,6.348,1.160
-0.070,-0.095,1.108,-7.935,2.625,-0.244
-0.059,-0.089,1.098,-7.141,-1.221,-0.671
-0.036,-0.062,1.075,-8.850,-7.568,-4.395
-0.059,-0.054,1.059,-8.728,-8.606,-6.592
-0.075,-0.062,1.067,-8.911,-5.798,-8.606
-0.137,-0.068,1.021,-10.010,-5.981,-9.399
-0.158,-0.056,1.016,-11.353,-5.798,-8.484
-0.182,-0.053,1.016,-13.000,-0.183,-9.705
-0.178,-0.033,1.009,-13.062,4.272,-8.850
-0.172,-0.037,1.001,-12.329,7.446,-6.653
-0.137,-0.042,1.007,-11.597,7.629,-5.554
-0.121,-0.046,1.002,-14.038,8.179,-7.019
-0.129,-0.056,0.998,-14.404,8.362,-8.789
-0.132,-0.056,0.995,-16.296,6.714,-11.169
-0.180,-0.055,1.006,-17.273,6.287,-12.634
-0.200,-0.059,1.012,-17.517,5.981,-13.062
-0.222,-0.080,0.997,-18.494,6.287,-13.306
-0.240,-0.074,1.000,-18.127,7.690,-12.024
-0.222,-0.069,1.015,-19.653,7.812,-12.085
-0.230,-0.067,1.013,-16.907,8.240,-11.292
-0.217,-0.068,1.017,-15.503,8.179,-9.644
-0.224,-0.077,1.008,-15.930,7.996,-10.986
-0.230,-0.080,0.998,-13.977,7.019,-9.583
-0.219,-0.082,1.004,-12.817,4.761,-8.362
-0.229,-0.071,0.989,-13.855,3.479,-8.362
-0.248,-0.066,0.962,-14.343,0.549,-7.507
-0.254,-0.063,0.954,-13.672,0.977,-6.531
-0.259,-0.059,0.933,-15.503,2.136,-6.409
-0.252,-0.071,0.947,-17.090,3.235,-5.127
-0.254,-0.072,0.962,-17.456,5.127,-5.310
-0.266,-0.066,0.983,-16.479,6.653,-4.395
-0.258,-0.061,0.993,-13.794,3.967,-2.197
-0.234,-0.053,0.977,-13.062,0.854,-2.075
-0.240,-0.063,0.973,-11.597,-0.977,-1.709
-0.240,-0.062,0.963,-13.672,-4.639,-0.854
-0.226,-0.052,0.956,-13.855,-7.263,0.854
-0.220,-0.064,0.970,-14.526,-6.287,-0.549
-0.232,-0.065,0.967,-14.343,-4.761,-0.305
-0.230,-0.086,0.964,-18.005,-0.671,-0.610
-0.218,-0.073,0.979,-19.165,0.061,-0.366
-0.197,-0.079,1.005,-20.325,2.930,-0.244
-0.194,-0.084,1.019,-20.386,2.869,0.305
-0.203,-0.077,1.034,-20.447,1.892,-1.465
-0.210,-0.079,1.042,-17.639,-4.272,-2.625
-0.206,-0.083,1.042,-17.395,-6.165,-1.465
-0.214,-0.098,1.039,-15.259,-8.179,-1.587
-0.222,-0.101,1.040,-14.526,-6.653,-1.160
-0.212,-0.108,1.020,-12.329,-4.639,-1.099
-0.213,-0.118,1.017,-13.733,-5.188,0.305
-0.195,-0.113,1.030,-12.329,-4.028,-0.671
-0.186,-0.101,1.034,-12.207,-3.052,0.427
-0.190,-0.103,1.037,-13.062,-2.808,-1.221
-0.179,-0.114,1.029,-12.085,-7.263,-2.625
-0.195,-0.105,1.029,-13.306,-8.850,-4.700
-0.224,-0.099,1.040,-10.864,-9.521,-5.615
-0.229,-0.100,1.022,-11.536,-10.437,-4.761
-0.238,-0.111,1.038,-11.475,-8.606,-4.150
-0.232,-0.099,1.042,-11.230,-5.859,-3.235
-0.242,-0.109,1.050,-9.399,-5.249,-2.075
-0.234,-0.113,1.051,-10.620,-6.287,-2.808
-0.234,-0.099,1.051,-9.827,-7.385,-3.052
-0.228,-0.099,1.061,-9.827,-9.399,-1.343
-0.219,-0.104,1.061,-6.531,-10.193,-1.526
-0.206,-0.125,1.045,-7.507,-12.756,-1.282
-0.209,-0.128,1.053,-7.751,-13.916,-2.197
-0.195,-0.143,1.069,-8.179,-11.902,-4.517
-0.196,-0.155,1.083,-6.165,-10.681,-4.822
-0.198,-0.147,1.091,-4.883,-14.099,-4.700
-0.195,-0.143,1.086,-2.930,-14.404,-4.272
-0.198,-0.101,1.069,-2.197,-16.846,-5.737
-0.190,-0.084,1.055,-0.305,-16.602,-6.042
-0.200,-0.115,1.022,1.282,-15.625,-6.165
-0.202,-0.115,1.002,0.732,-14.648,-6.165

0.412,-2.468,-0.665,-190.918,-43.335,60.669
0.403,-3.184,-1.084,-202.698,-55.847,61.340
0.614,-4.055,-1.166,-303.040,-126.526,74.402
0.945,-4.177,-0.609,-360.962,-155.090,68.726
0.869,-3.758,1.346,-396.973,-122.986,55.420
0.400,-3.324,2.286,-373.840,-40.955,-0.488
-0.891,-1.926,4.360,-221.619,220.398,-29.297
-1.037,-1.431,4.916,-201.965,263.977,-52.673
-0.333,-0.371,5.177,-140.442,249.817,22.339
0.180,-0.423,4.818,-75.317,182.312,81.421
1.364,-0.661,2.970,79.346,83.862,143.799
1.562,-0.781,2.009,103.516,33.142,104.919
1.246,-0.969,0.681,117.493,-109.741,23.193
0.811,-0.788,0.562,107.971,-130.554,-17.944
-0.083,-0.557,0.781,84.595,-138.367,-83.374
-0.411,-0.509,0.884,79.773,-129.089,-95.032
-0.742,-0.364,0.801,76.111,-105.347,-84.778
-0.786,-0.266,0.651,72.144,-86.731,-75.623
-0.729,-0.125,0.482,56.274,-16.113,-60.242
-0.629,-0.090,0.462,48.828,20.203,-48.828
-0.504,-0.046,0.455,33.508,71.899,-30.640
-0.338,-0.062,0.427,25.879,86.487,-27.161
-0.287,-0.121,0.443,16.846,93.689,-26.611
-0.240,-0.183,0.620,-3.723,95.398,-32.349
-0.261,-0.203,0.751,-11.963,88.074,-37.720
-0.356,-0.239,0.934,-19.897,58.777,-45.898
-0.414,-0.223,1.016,-20.874,43.152,-42.419
-0.486,-0.159,1.098,-13.611,19.714,-33.264
-0.515,-0.146,1.108,-10.376,9.399,-26.367
-0.500,-0.125,1.057,-5.066,-4.272,-15.503
-0.458,-0.117,1.013,-4.883,-2.991,-10.254
-0.380,-0.114,0.948,-4.578,10.986,-5.371
-0.342,-0.120,0.934,-6.775,15.015,-2.625
-0.302,-0.110,0.926,-11.536,20.935,-2.563
-0.256,-0.099,0.973,-14.465,20.325,-3.174
-0.249,-0.114,1.001,-15.198,18.066,-6.470
-0.240,-0.124,0.992,-18.250,8.301,-8.728
-0.241,-0.145,0.997,-21.057,2.686,-9.583
-0.255,-0.112,1.009,-26.794,2.686,-13.123
-0.271,-0.095,1.029,-27.405,6.042,-13.611
-0.308,-0.113,1.043,-24.719,17.090,-12.634
-0.327,-0.115,1.050,-26.550,21.729,-11.169
-0.305,-0.132,1.051,-25.208,31.555,-7.263
-0.291,-0.137,1.040,-25.024,34.241,-5.432
-0.313,-0.131,1.037,-25.635,35.217,-4.517
-0.304,-0.119,1.061,-25.635,31.067,-2.258
-0.292,-0.108,1.062,-24.353,24.109,-0.916
-0.251,-0.119,1.053,-20.813,7.690,4.395
-0.235,-0.111,1.046,-21.484,0.305,4.761
-0.216,-0.130,0.995,-22.095,-7.324,6.470
-0.217,-0.117,0.983,-24.719,-6.470,4.639
-0.190,-0.120,0.998,-24.475,-0.854,0.427
-0.204,-0.116,1.001,-25.452,1.770,-1.770
-0.218,-0.120,1.004,-25.513,5.554,-2.380
-0.235,-0.113,1.025,-25.208,8.606,-3.540
-0.233,-0.116,1.040,-26.001,9.583,-5.615
-0.254,-0.127,1.061,-23.621,12.390,-7.263
-0.263,-0.119,1.067,-21.606,12.817,-7.263
-0.282,-0.156,1.033,-18.066,10.742,-6.165
-0.277,-0.137,1.025,-21.118,8.728,-5.127
-0.272,-0.124,1.021,-19.714,7.324,-3.662
-0.260,-0.110,1.013,-19.165,6.348,-4.211
-0.271,-0.120,0.997,-18.738,6.348,-4.578
-0.298,-0.126,0.971,-16.418,5.798,-2.380
-0.306,-0.128,0.964,-19.409,4.822,-3.906
-0.300,-0.117,0.945,-18.738,4.944,-2.930
-0.295,-0.125,0.949,-20.386,4.761,-3.357
-0.279,-0.133,0.970,-19.592,7.935,-4.272
-0.289,-0.132,0.991,-21.362,10.132,-3.662
-0.299,-0.126,0.992,-18.005,15.503,-5.249
-0.305,-0.139,0.979,-15.625,12.878,-3.540
-0.307,-0.139,0.969,-17.395,9.521,-4.883
-0.319,-0.128,0.983,-18.127,5.859,-5.981
-0.311,-0.132,0.976,-16.174,5.615,-6.592
-0.322,-0.124,0.951,-15.503,3.235,-5.249
-0.316,-0.115,0.946,-14.648,1.709,-4.578
-0.319,-0.126,0.937,-13.794,-0.183,-3.418
-0.321,-0.127,0.927,-14.221,-0.244,-4.028
-0.329,-0.113,0.937,-13.916,-0.671,-2.441
-0.319,-0.138,0.906,-13.550,-3.784,-2.808
-0.299,-0.151,0.902,-16.052,-5.737,-3.174
-0.289,-0.150,0.928,-17.883,-5.920,-2.502
-0.284,-0.156,0.940,-17.517,-3.174,-2.869
-0.281,-0.132,0.952,-16.052,0.793,-4.395
-0.285,-0.130,0.933,-15.320,2.869,-5.798
-0.297,-0.113,0.936,-14.404,3.540,-7.263
-0.313,-0.113,0.930,-14.771,2.869,-7.935
-0.340,-0.126,0.926,-14.099,2.075,-9.216
-0.376,-0.125,0.940,-16.479,-1.526,-6.531
-0.395,-0.135,0.959,-15.747,-2.319,-3.479
-0.355,-0.142,0.984,-17.517,-5.432,-1.465
-0.340,-0.142,0.995,-16.174,-6.104,-0.977
-0.296,-0.136,0.996,-15.625,-10.132,-1.587
-0.279,-0.109,1.005,-15.503,-12.634,-1.282
-0.281,-0.110,1.000,-13.977,-17.151,-0.549
-0.275,-0.117,0.998,-11.108,-18.799,0.977
-0.277,-0.117,0.999,-11.963,-21.851,0.854
-0.282,-0.122,1.013,-12.390,-23.010,0.305
-0.259,-0.104,1.055,8.850,-36.194,7.874
-0.255,-0.107,1.069,15.137,-32.715,10.254
-0.260,-0.107,1.075,5.188,-28.381,9.827
-0.275,-0.114,1.053,-1.526,-28.931,4.944
-0.271,-0.100,1.034,-2.930,-25.146,2.197
-0.262,-0.110,1.055,-5.859,-23.315,-0.244
-0.243,-0.080,1.037,-6.775,-21.851,-0.122
-0.240,-0.079,1.024,-7.996,-18.738,0.366
-0.244,-0.094,1.017,-8.545,-16.602,-0.244
-0.240,-0.098,1.020,-3.723,-11.047,1.221
-0.241,-0.088,1.049,-6.836,-9.094,0.427
-0.246,-0.100,1.045,-9.094,-7.080,0.244
-0.241,-0.099,1.060,-6.226,-8.911,-1.221
-0.235,-0.103,1.062,-4.517,-8.301,-1.465
-0.239,-0.108,1.070,-2.441,-9.338,-1.343
-0.242,-0.098,1.060,-2.502,-10.742,-1.648
-0.245,-0.113,1.047,-4.395,-10.559,-4.150
-0.243,-0.114,1.030,-3.601,-9.521,-4.089
-0.244,-0.110,1.033,-5.310,-7.629,-3.174
-0.254,-0.120,1.023,-4.395,-2.258,-3.906
-0.252,-0.117,1.033,-2.563,-0.183,-5.920

-0.347,1.730,0.526,-28.687,-71.899,-81.116
-0.377,1.784,0.564,-36.804,-75.073,-80.750
-0.434,1.797,0.610,-46.997,-96.497,-72.937
-0.454,1.755,0.573,-53.040,-106.079,-73.975
-0.544,1.526,0.365,-64.453,-117.310,-65.308
-0.552,1.408,0.268,-71.106,-121.948,-52.124
-0.535,1.203,0.212,-95.093,-120.544,-22.949
-0.480,1.129,0.203,-110.718,-117.676,-10.681
-0.324,0.833,0.112,-131.653,-108.887,6.042
-0.225,0.713,0.103,-138.367,-104.431,16.907
0.038,0.379,0.206,-156.494,-81.787,21.118
0.198,0.154,0.316,-160.767,-70.740,14.832
0.311,-0.083,0.421,-163.330,-70.618,-2.625
0.222,-0.475,0.602,-161.133,-77.576,-8.362
0.018,-0.762,0.604,-160.400,-81.909,-8.362
-0.200,-1.189,0.491,-163.269,-65.979,12.634
-0.281,-1.359,0.419,-169.250,-38.147,26.001
-0.273,-1.622,0.346,-188.110,29.541,55.176
-0.178,-1.640,0.465,-192.871,64.453,71.655
-0.044,-1.537,0.700,-183.533,143.555,87.463
0.000,-1.508,0.832,-176.086,178.406,82.214
0.102,-1.378,1.153,-165.161,216.858,54.443
0.131,-1.308,1.323,-156.616,210.022,39.429
0.168,-1.234,1.480,-123.596,158.875,2.930
0.023,-1.202,1.553,-101.379,150.269,-8.484
-0.229,-1.195,1.410,-45.166,2.014,-35.950
-0.373,-1.163,1.145,-46.875,-15.564,-50.842
-0.863,-0.947,1.200,-50.903,-34.241,-49.072
-0.853,-0.783,1.363,-67.200,-50.720,-31.799
-0.652,-0.505,1.733,-65.491,-31.189,-7.385
-0.529,-0.428,1.712,-43.762,-14.954,-0.916
-0.310,-0.439,1.378,-2.258,22.644,3.540
-0.219,-0.435,1.212,8.301,41.504,0.732
-0.174,-0.378,0.940,15.625,65.491,-13.000
-0.206,-0.294,0.825,16.235,74.524,-24.170
-0.280,-0.227,0.753,13.855,75.378,-33.508
-0.509,-0.227,0.686,10.620,65.552,-45.776
-0.615,-0.265,0.635,7.446,60.669,-49.316
-0.768,-0.297,0.565,-5.249,49.561,-50.720
-0.800,-0.279,0.578,-11.414,39.673,-47.058
-0.754,-0.279,0.634,-20.447,20.996,-34.363
-0.699,-0.269,0.639,-24.109,8.911,-29.358
-0.553,-0.200,0.584,-28.564,-16.052,-21.912
-0.480,-0.225,0.559,-29.663,-25.024,-20.508
-0.422,-0.245,0.545,-36.621,-20.264,-28.931
-0.411,-0.225,0.578,-42.542,-12.024,-32.715
-0.490,-0.281,0.698,-47.913,6.287,-44.617
-0.554,-0.296,0.795,-48.706,15.991,-48.950
-0.681,-0.290,0.995,-50.354,25.513,-49.561
-0.728,-0.285,1.059,-47.852,21.790,-46.875
-0.781,-0.280,1.108,-38.879,4.517,-34.546
-0.746,-0.243,1.108,-33.691,-9.094,-24.597
-0.598,-0.246,1.000,-15.991,-39.429,-8.484
-0.534,-0.272,0.924,-10.620,-49.316,-5.188
-0.437,-0.272,0.822,-10.437,-48.950,-5.188
-0.423,-0.273,0.801,-11.047,-38.635,-3.723
-0.441,-0.299,0.846,-16.418,-17.822,-10.010
-0.472,-0.299,0.889,-17.517,-9.338,-12.085
-0.508,-0.287,0.961,-16.602,-8.667,-12.878
-0.506,-0.303,0.975,-16.174,-19.104,-11.963
-0.462,-0.258,0.960,-15.808,-35.156,-9.705
-0.452,-0.238,0.947,-14.709,-37.781,-9.094
-0.438,-0.241,0.911,-15.381,-38.635,-8.301
-0.415,-0.243,0.893,-16.724,-37.598,-9.460
-0.433,-0.239,0.889,-19.531,-30.701,-14.587
-0.497,-0.251,0.936,-19.531,-24.841,-12.695
-0.510,-0.244,0.968,-20.630,-20.142,-9.827
-0.522,-0.254,1.053,-18.555,-20.081,-8.057
-0.503,-0.244,1.068,-14.343,-22.522,-2.380
-0.469,-0.236,1.056,-12.451,-24.841,-1.587
-0.442,-0.220,1.035,-10.620,-28.259,-0.854
-0.438,-0.202,0.990,-12.085,-33.264,-1.648
-0.438,-0.190,0.991,-14.343,-33.386,-0.916
-0.435,-0.177,1.002,-16.235,-30.273,-1.160
-0.430,-0.174,1.013,-16.052,-26.306,-1.221
-0.425,-0.187,1.018,-13.855,-17.273,1.221
-0.428,-0.201,1.040,-13.916,-15.869,1.099
-0.392,-0.189,1.051,-10.498,-13.367,4.089
-0.367,-0.188,1.061,-8.667,-14.221,4.944
-0.325,-0.216,1.053,-5.066,-16.357,4.150
-0.303,-0.228,1.042,-5.371,-19.043,2.930
-0.284,-0.238,1.027,-4.639,-23.926,-1.648
-0.284,-0.240,1.023,-5.310,-24.658,-4.395
-0.316,-0.249,1.033,-5.798,-24.231,-6.592
-0.384,-0.247,1.043,-5.798,-16.724,-11.047
-0.403,-0.242,1.044,-5.127,-11.047,-10.681
-0.427,-0.229,1.047,-6.287,-1.831,-10.193
-0.429,-0.225,1.052,-5.432,3.906,-10.376
-0.436,-0.238,1.033,-3.601,10.132,-10.315
-0.456,-0.243,1.056,-3.662,10.376,-10.559
-0.449,-0.251,1.067,-2.991,5.737,-13.184
-0.451,-0.275,1.088,-1.953,4.517,-13.733
-0.439,-0.322,1.123,-0.061,3.296,-16.296
-0.450,-0.337,1.131,-1.099,3.113,-18.188
-0.471,-0.347,1.156,1.709,4.028,-18.860
-0.470,-0.401,1.156,5.737,8.484,-18.555
-0.481,-0.383,1.129,8.179,13.123,-16.907
-0.466,-0.276,1.075,8.850,17.578,-13.184
-0.458,-0.246,1.064,10.193,15.442,-10.620
-0.430,-0.225,1.040,15.564,19.592,-9.827
-0.431,-0.256,1.047,18.066,26.489,-11.780
-0.458,-0.274,1.079,18.555,34.729,-12.756
-0.521,-0.321,1.137,23.621,56.091,-8.301
-0.548,-0.327,1.145,22.156,64.758,-4.150
-0.554,-0.349,1.195,24.841,72.510,-0.244
-0.538,-0.368,1.190,27.100,73.303,1.587
-0.548,-0.480,1.161,34.363,72.266,10.498
-0.480,-0.365,1.106,18.494,88.013,14.893
-0.509,-0.324,1.046,8.972,90.698,10.559
-0.399,-0.152,0.969,15.198,77.026,0.916
-0.361,-0.121,0.907,22.949,65.491,4.272
-0.330,-0.094,0.803,47.546,40.283,10.620
-0.341,-0.116,0.776,56.580,33.386,10.620
-0.339,-0.144,0.754,57.190,36.072,13.428
-0.371,-0.136,0.810,54.138,40.894,13.611
-0.424,-0.170,0.830,50.293,42.725,12.512
-0.517,-0.182,0.941,46.814,35.400,11.902
-0.590,-0.192,0.973,50.110,30.151,12.817
-0.675,-0.155,0.951,54.260,16.663,12.756

-1.271,-1.875,-0.598,-126.526,-69.519,-2.808
-1.302,-2.258,0.120,-232.605,-88.379,100.525
-0.533,2.006,1.200,-250.671,-93.811,106.018
0.555,-0.383,1.447,-203.003,-189.087,-9.583
0.692,-0.548,0.641,8.789,-117.126,-10.254
0.784,0.042,1.474,24.048,-82.581,-48.889
-0.990,-1.089,-0.254,47.119,-60.364,-81.726
-0.776,-0.405,1.367,-27.954,-61.035,-67.932
-0.931,-1.135,0.744,-32.043,-11.353,-3.113
-0.622,-1.054,1.219,-74.219,7.690,40.405
-0.658,-1.064,1.664,-7.141,50.781,69.153
0.444,0.145,0.891,67.017,-19.714,41.931
0.949,-0.587,0.440,44.617,-31.067,64.941
1.251,-0.458,-0.232,15.442,-51.147,11.108
0.869,-0.488,0.041,-23.621,-67.566,-28.992
0.463,-0.402,0.644,-63.477,-125.793,-71.411
0.287,-0.450,0.880,-68.298,-141.235,-90.088
-0.231,-0.498,1.466,-69.214,-103.577,-101.990
-0.454,-0.468,1.688,-52.856,-63.293,-96.008
-0.688,-0.411,1.713,-17.090,-7.202,-61.096
-0.683,-0.400,1.604,-0.610,-2.441,-36.682
-0.392,-0.371,1.267,14.343,-23.315,6.714
-0.200,-0.361,1.141,12.390,-31.006,17.944
0.047,-0.299,1.008,4.639,-38.208,19.531
0.082,-0.285,1.009,0.366,-41.016,14.221
0.124,-0.291,0.987,-3.235,-44.983,8.606
0.050,-0.329,1.081,-14.160,-45.166,-4.700
0.024,-0.348,1.151,-20.020,-46.204,-8.057
-0.055,-0.312,1.292,-21.362,-46.692,-11.780
-0.081,-0.302,1.400,-20.752,-41.565,-10.864
-0.107,-0.343,1.500,-9.949,-29.297,-4.761
-0.094,-0.336,1.536,-2.258,-24.841,2.258
0.029,-0.334,1.435,10.193,-21.057,10.376
0.090,-0.345,1.351,14.038,-17.822,11.536
0.137,-0.332,1.243,15.930,-14.893,10.254
0.188,-0.331,1.142,15.442,-11.230,9.399
0.191,-0.325,1.134,12.939,-7.935,8.057
0.174,-0.319,1.132,10.010,1.526,2.686
0.141,-0.313,1.132,9.949,4.456,0.122
0.116,-0.317,1.122,6.714,5.066,-1.282
0.108,-0.301,1.132,1.465,2.502,-1.587
0.101,-0.298,1.141,-0.122,3.479,-2.930
0.093,-0.299,1.134,0.671,4.517,-2.625
0.090,-0.311,1.120,1.282,6.836,-3.418
0.092,-0.306,1.108,2.747,8.240,-3.540
0.088,-0.314,1.093,2.136,7.874,-4.395
0.078,-0.308,1.088,3.845,12.512,-6.592
0.073,-0.286,1.087,4.700,11.353,-5.432
0.071,-0.310,1.035,5.676,8.850,-7.751
0.060,-0.307,1.034,4.089,9.766,-10.132
0.054,-0.287,1.024,3.601,12.085,-11.963
0.023,-0.281,0.987,3.113,15.930,-12.939
-0.004,-0.263,0.987,1.648,19.470,-14.038
-0.026,-0.257,0.984,-0.244,15.869,-10.742
-0.029,-0.242,0.990,-0.671,16.968,-8.362
-0.052,-0.227,0.998,-0.244,17.578,-7.996
-0.069,-0.250,0.971,2.136,17.822,-7.080
-0.083,-0.262,0.955,3.052,20.386,-7.385
-0.102,-0.264,0.968,-0.244,15.137,-5.493
-0.117,-0.273,0.966,-0.916,13.672,-4.517
-0.120,-0.272,0.987,-0.305,5.615,-0.244
-0.108,-0.285,0.950,-0.549,0.549,1.038
-0.086,-0.267,0.937,-2.441,-2.319,2.075
-0.053,-0.284,0.907,-3.052,-1.770,5.798
-0.024,-0.271,0.908,-2.808,0.061,4.639
-0.010,-0.278,0.903,-4.333,5.188,4.395
0.009,-0.260,0.916,-4.944,7.690,1.831
-0.016,-0.250,0.946,-5.432,8.423,-1.343
-0.070,-0.242,0.968,-5.920,3.418,-3.113
-0.099,-0.239,1.002,-6.104,1.648,-4.272
-0.110,-0.250,1.035,-6.287,-1.282,-4.395
-0.139,-0.231,1.083,0.366,-2.991,-0.732
-0.148,-0.236,1.080,2.991,-7.019,1.648
-0.115,-0.251,1.060,7.080,-10.315,5.554
-0.091,-0.246,1.039,6.958,-10.437,8.057
-0.071,-0.240,1.042,6.531,-11.841,8.667
-0.051,-0.263,0.997,3.784,-13.123,7.324
-0.058,-0.249,0.993,3.479,-12.024,6.104
-0.048,-0.218,1.051,-0.977,-10.010,5.127
-0.059,-0.201,1.071,-2.808,-10.193,3.235
-0.066,-0.226,1.084,-1.770,-10.254,4.150
-0.049,-0.237,1.099,-2.502,-8.972,4.517
-0.051,-0.250,1.123,-2.808,-7.263,3.906
-0.037,-0.273,1.162,-0.549,-9.521,1.648
-0.032,-0.286,1.173,1.099,-11.658,1.160
-0.039,-0.314,1.127,5.249,-19.043,1.404
-0.040,-0.310,1.085,6.409,-21.667,1.892
-0.030,-0.286,1.036,6.165,-23.560,3.662
0.002,-0.237,1.001,3.845,-21.729,4.272
0.006,-0.238,0.999,1.831,-17.334,4.700
0.017,-0.240,1.050,-0.977,-5.188,3.418
0.013,-0.254,1.081,-2.808,1.404,0.671
0.028,-0.284,1.087,-1.404,4.456,0.427
0.032,-0.298,1.116,-3.418,6.775,-0.549
0.028,-0.298,1.135,-4.822,4.883,-1.831
0.030,-0.326,1.166,-2.625,1.953,-5.066
-0.012,-0.313,1.159,3.601,-7.263,-8.240
-0.019,-0.295,1.153,5.005,-13.306,-8.179
-0.030,-0.247,1.039,10.071,-26.794,-7.141
-0.019,-0.232,0.998,13.428,-29.297,-4.639
0.012,-0.212,0.960,14.282,-24.170,2.197
0.087,-0.197,0.917,11.230,-17.700,2.075
0.087,-0.236,0.927,9.094,-6.042,-1.770
0.127,-0.253,0.989,2.808,19.348,-8.850
0.134,-0.255,1.042,1.648,25.391,-11.902
0.134,-0.265,1.062,2.136,25.024,-15.137
0.086,-0.289,1.093,8.179,15.259,-22.278
0.021,-0.315,1.091,11.414,8.240,-25.513
-0.120,-0.273,1.065,11.963,-9.277,-26.978
-0.124,-0.189,1.072,11.658,-17.944,-24.536
-0.062,-0.128,1.031,18.860,-25.330,-15.869
-0.004,-0.145,0.993,23.865,-20.935,-12.390
0.080,-0.179,0.920,26.001,-7.996,-10.315
0.121,-0.191,0.930,25.024,-0.732,-10.132
0.169,-0.222,0.924,25.208,2.502,-10.620
0.266,-0.244,0.925,23.682,-1.404,-17.822
0.270,-0.256,0.970,20.996,-3.845,-25.452
0.140,-0.261,1.032,18.250,-6.897,-40.405
0.045,-0.213,1.055,18.433,-11.292,-46.326

-0.205,1.579,0.724,38.269,12.939,-34.546
-0.180,1.520,0.643,40.710,16.907,-39.978
-0.242,1.597,0.603,41.321,22.217,-36.987
-0.297,1.719,0.516,33.752,37.659,-36.804
-0.290,1.810,0.473,28.015,42.175,-34.180
-0.234,1.954,0.471,14.771,47.485,-28.748
-0.204,2.045,0.478,7.507,47.668,-27.405
-0.207,2.141,0.485,-5.310,38.452,-28.137
-0.245,2.206,0.433,-13.367,29.236,-30.579
-0.320,2.162,0.313,-21.118,19.409,-33.447
-0.413,2.164,0.267,-46.692,3.479,-34.546
-0.426,2.055,0.214,-54.810,-12.939,-29.358
-0.509,1.832,0.024,-73.730,-55.298,-17.273
-0.573,1.669,-0.107,-84.900,-84.229,-9.705
-0.582,1.210,-0.374,-114.258,-143.188,15.503
-0.509,1.015,-0.522,-131.165,-162.537,28.381
-0.411,0.553,-0.689,-170.288,-167.847,47.241
-0.402,0.247,-0.696,-186.340,-158.142,54.443
-0.349,-0.432,-0.600,-204.041,-109.436,70.496
-0.297,-0.842,-0.452,-201.416,-62.683,80.627
-0.338,-1.760,-0.044,-192.505,-50.598,86.243
-0.375,-2.905,0.027,-166.138,-58.289,100.647
-0.372,-3.503,0.077,-161.682,-65.063,107.300
-0.350,-4.682,0.426,-182.861,-97.900,164.734
-0.145,-4.704,0.715,-209.595,-87.158,218.567
0.742,-3.727,1.938,-296.204,39.185,186.584
1.059,-2.994,2.846,-317.200,74.402,172.302
2.599,-1.513,4.277,-295.471,111.877,169.983
2.821,-0.973,4.780,-233.948,63.965,95.276
2.892,-0.234,4.243,-42.297,56.885,11.597
2.457,-0.574,3.066,68.115,44.983,-44.678
1.752,-0.820,2.145,113.708,39.429,-103.210
0.096,-0.874,0.667,119.202,46.265,-173.035
-0.565,-0.801,0.255,101.013,103.882,-176.086
-1.229,-0.465,0.480,57.983,70.129,-144.714
-1.253,-0.377,0.409,51.270,41.138,-117.004
-1.323,-0.196,0.412,28.198,41.870,-84.961
-1.227,-0.151,0.467,19.836,32.410,-61.584
-0.967,-0.090,0.466,2.441,3.540,-27.222
-0.790,-0.076,0.468,-5.920,-9.277,-13.062
-0.421,-0.115,0.597,-21.729,-26.855,4.456
-0.267,-0.137,0.704,-28.687,-33.020,6.836
-0.094,-0.191,0.936,-36.438,-37.537,4.333
-0.073,-0.217,1.050,-38.696,-36.377,2.014
-0.100,-0.238,1.249,-35.889,-30.151,-2.869
-0.126,-0.237,1.284,-30.579,-27.405,-3.906
-0.159,-0.245,1.264,-17.456,-18.738,-6.165
-0.199,-0.239,1.166,-13.245,-16.357,-4.028
-0.191,-0.209,1.131,-10.620,-17.334,-1.099
-0.126,-0.192,1.048,-5.859,-23.376,2.808
-0.103,-0.163,1.002,-5.920,-29.358,2.075
-0.076,-0.149,0.922,-5.310,-34.180,2.075
-0.093,-0.153,0.906,-6.042,-33.752,0.183
-0.125,-0.155,0.911,-11.780,-28.442,-2.502
-0.129,-0.146,0.936,-13.184,-23.987,-1.343
-0.140,-0.141,1.014,-18.677,-15.015,-0.427
-0.140,-0.135,1.047,-20.325,-12.146,0.427
-0.139,-0.116,1.142,-20.447,-10.803,3.052
-0.124,-0.099,1.180,-18.860,-11.902,4.517
-0.110,-0.107,1.181,-13.550,-13.000,7.874
-0.084,-0.146,1.139,-11.658,-10.254,8.606
-0.048,-0.135,1.126,-12.634,-9.644,9.888
0.003,-0.136,1.149,-13.123,-10.010,8.423
0.018,-0.121,1.149,-11.902,-12.512,7.507
0.027,-0.102,1.118,-9.216,-13.794,6.104
0.031,-0.095,1.106,-9.033,-14.343,4.517
0.006,-0.062,1.088,-8.057,-13.794,3.479
0.000,-0.062,1.094,-8.057,-13.977,3.418
-0.021,-0.079,1.094,-6.348,-13.489,3.601
-0.039,-0.080,1.072,-4.639,-5.737,4.761
-0.036,-0.083,1.053,-4.944,-0.244,5.432
0.000,-0.061,1.066,-8.118,7.812,6.104
0.008,-0.050,1.064,-8.484,7.690,6.348
0.003,-0.055,1.078,-8.606,4.272,6.897
0.035,-0.036,1.078,-9.583,-1.099,6.592
0.049,-0.032,1.079,-8.606,-2.808,6.958
0.056,-0.019,1.062,-8.545,-4.150,6.775
0.046,-0.013,1.053,-10.681,-4.944,3.357
0.043,0.018,1.034,-9.338,-3.296,5.554
0.055,0.013,1.046,-12.634,-0.488,5.066
0.064,-0.006,1.070,-12.451,1.892,4.272
0.058,-0.018,1.087,-12.451,3.662,2.930
0.061,-0.041,1.076,-11.414,7.080,3.479
0.077,-0.048,1.075,-13.000,7.080,2.197
0.077,-0.054,1.080,-13.123,7.324,1.099
0.101,-0.070,1.086,-13.367,4.944,-0.854
0.107,-0.075,1.089,-13.489,3.296,-2.502
0.086,-0.083,1.072,-11.780,2.014,-5.981
0.059,-0.068,1.059,-12.390,1.770,-7.751
0.042,-0.067,1.054,-11.658,2.808,-8.118
0.002,-0.082,1.067,-11.780,3.967,-10.315
-0.006,-0.093,1.076,-11.963,4.456,-10.620
-0.040,-0.100,1.087,-10.803,4.272,-11.780
-0.043,-0.101,1.081,-10.559,3.540,-11.108
-0.046,-0.117,1.072,-11.292,0.183,-11.475
-0.052,-0.119,1.064,-11.292,-1.831,-12.329
-0.065,-0.115,1.054,-9.888,-4.211,-13.000
-0.077,-0.117,1.052,-10.437,-5.432,-12.878
-0.078,-0.123,1.040,-11.108,-6.226,-13.000
-0.085,-0.133,1.067,-11.169,-5.859,-11.780
-0.072,-0.135,1.081,-11.230,-3.174,-11.536
-0.054,-0.140,1.115,-9.033,3.479,-11.536
-0.062,-0.150,1.133,-9.094,6.042,-12.695
-0.064,-0.167,1.157,-4.822,9.888,-12.878
-0.070,-0.178,1.156,-2.502,9.583,-13.062
-0.052,-0.161,1.112,2.136,3.662,-14.099
-0.070,-0.125,1.074,3.235,1.526,-15.747
-0.061,-0.140,1.066,5.005,-0.793,-15.747
-0.037,-0.131,1.034,4.761,-6.592,-16.479
-0.039,-0.151,1.034,4.578,-7.324,-18.982
-0.063,-0.180,1.056,1.648,-1.892,-23.621
-0.064,-0.164,1.101,-1.770,0.916,-27.039
-0.097,-0.212,1.163,0.671,7.324,-28.259
-0.094,-0.223,1.197,1.038,9.888,-24.536
-0.098,-0.220,1.223,1.709,10.132,-24.658
-0.118,-0.225,1.214,8.606,5.554,-23.071
-0.116,-0.189,1.160,13.428,1.709,-22.461
-0.123,-0.092,1.090,16.052,-6.104,-20.813
-0.083,-0.053,1.058,18.250,-11.230,-20.325

-0.355,1.030,1.166,-89.539,-62.866,-103.333
-0.422,1.088,1.185,-90.149,-47.913,-94.971
-0.481,1.151,1.142,-83.069,-13.245,-67.505
-0.491,1.223,1.132,-80.200,9.277,-51.025
-0.479,1.271,1.087,-75.684,45.593,-20.020
-0.438,1.260,0.981,-71.533,56.763,-2.258
-0.405,1.167,0.820,-68.604,62.317,14.343
-0.375,1.009,0.358,-70.251,65.735,36.377
-0.365,0.930,0.163,-80.383,62.195,44.373
-0.386,0.656,-0.221,-110.229,39.795,58.777
-0.331,0.501,-0.354,-131.104,20.691,64.758
-0.083,0.147,-0.453,-175.598,-16.541,66.467
-0.002,-0.054,-0.583,-194.031,-33.630,59.998
-0.018,-0.532,-0.516,-214.966,-53.955,50.049
-0.066,-0.849,-0.407,-219.604,-64.514,43.152
-0.334,-1.448,0.143,-194.641,-42.969,46.692
-0.172,-1.927,0.104,-169.739,-31.372,58.411
-0.418,-2.657,0.276,-118.774,-113.281,123.901
-0.348,-3.247,-0.038,-108.154,-167.603,147.766
0.162,-3.737,0.006,-144.287,-139.282,184.143
0.477,-3.647,0.352,-178.406,-108.093,192.627
1.131,-2.962,1.419,-218.262,1.587,177.673
1.540,-2.489,2.013,-225.708,36.560,160.828
2.149,-1.661,3.088,-204.041,-0.549,102.905
2.684,-1.269,3.659,-147.095,-57.434,71.594
2.444,-0.756,3.052,-22.583,-52.124,-36.560
2.174,-0.803,2.692,28.137,-23.071,-72.937
0.803,-0.833,1.510,89.844,61.340,-148.804
0.176,-0.769,1.137,99.060,91.309,-164.185
-0.585,-0.688,0.944,73.181,106.506,-161.621
-0.811,-0.649,0.991,66.345,100.586,-146.057
-1.065,-0.457,0.860,62.744,86.365,-112.366
-1.079,-0.417,0.678,61.646,67.505,-95.093
-1.067,-0.303,0.555,44.617,42.542,-63.599
-1.052,-0.251,0.567,33.142,33.813,-48.706
-0.935,-0.207,0.642,12.207,8.972,-22.217
-0.852,-0.211,0.725,2.319,-4.456,-9.460
-0.749,-0.202,0.794,-4.028,-14.832,1.953
-0.522,-0.274,0.987,-17.456,-29.236,17.212
-0.396,-0.317,1.090,-21.118,-34.424,21.912
-0.158,-0.337,1.285,-18.555,-35.950,29.419
-0.082,-0.350,1.303,-11.230,-38.147,28.503
-0.020,-0.329,1.231,1.343,-38.818,22.461
-0.020,-0.297,1.157,5.371,-39.917,19.592
-0.022,-0.273,1.045,12.146,-39.917,18.311
0.001,-0.303,0.988,12.878,-38.025,16.785
-0.002,-0.246,0.948,10.071,-32.166,13.428
-0.006,-0.221,0.901,8.484,-27.771,14.954
0.002,-0.222,0.876,3.601,-25.574,12.329
-0.027,-0.177,0.876,-5.432,-19.043,7.996
-0.045,-0.178,0.899,-10.620,-11.597,7.690
-0.093,-0.190,1.023,-19.592,-4.517,5.981
-0.094,-0.192,1.097,-22.461,-4.089,5.981
-0.107,-0.183,1.215,-23.682,-3.296,6.897
-0.081,-0.176,1.226,-22.522,-6.104,8.911
-0.067,-0.186,1.237,-18.311,-9.827,10.193
-0.030,-0.162,1.220,-14.282,-13.184,9.033
-0.012,-0.156,1.200,-12.329,-13.489,10.254
0.015,-0.148,1.139,-8.911,-12.329,10.193
0.027,-0.150,1.125,-7.446,-12.268,11.353
0.079,-0.142,1.121,-6.470,-10.925,11.658
0.091,-0.143,1.137,-5.981,-10.193,11.169
0.096,-0.154,1.116,-4.028,-5.920,9.949
0.110,-0.169,1.118,-4.456,-4.333,9.399
0.110,-0.167,1.142,-5.310,-5.798,7.385
0.141,-0.149,1.163,-5.371,-9.277,5.737
0.145,-0.145,1.160,-3.113,-8.362,3.357
0.135,-0.169,1.144,-2.197,-7.202,0.488
0.126,-0.164,1.137,-3.540,-3.479,-4.211
0.121,-0.175,1.146,-2.686,-2.136,-5.249
0.111,-0.184,1.144,-2.075,1.648,-8.057
0.101,-0.199,1.130,-0.488,2.930,-8.606
0.094,-0.202,1.115,-0.061,5.005,-11.475
0.075,-0.196,1.127,-5.737,7.507,-13.794
0.065,-0.209,1.141,-6.836,7.141,-15.747
0.066,-0.214,1.180,-7.996,7.996,-17.029
0.069,-0.212,1.184,-6.531,8.240,-17.395
0.080,-0.198,1.173,-5.188,10.193,-18.555
0.082,-0.205,1.142,-1.587,14.832,-20.081
0.079,-0.206,1.126,-1.648,17.456,-21.667
0.051,-0.216,1.081,0.671,19.470,-23.987
0.042,-0.217,1.064,1.709,19.226,-24.231
0.030,-0.232,1.064,1.099,18.311,-25.269
0.048,-0.193,1.021,2.502,15.564,-26.245
0.010,-0.141,1.030,1.709,17.822,-29.175
-0.007,-0.124,1.012,3.784,15.991,-27.466
0.002,-0.120,1.017,4.883,14.893,-28.076
-0.001,-0.124,1.050,4.211,17.639,-30.640
-0.036,-0.145,1.089,5.371,16.357,-31.006
-0.041,-0.163,1.127,7.080,13.916,-28.992
-0.038,-0.191,1.131,12.146,6.226,-27.405
-0.036,-0.199,1.119,15.625,2.197,-27.344
-0.042,-0.208,1.060,19.043,-3.601,-29.785
-0.034,-0.158,1.000,20.630,-7.507,-29.846
0.023,-0.025,0.922,16.479,-11.902,-30.396
0.051,-0.013,0.896,16.113,-11.902,-30.090
0.073,-0.028,0.870,14.465,-9.949,-32.104
0.061,-0.034,0.850,7.141,1.648,-36.682
0.034,-0.024,0.882,3.967,8.301,-37.476
-0.028,-0.066,0.916,-2.075,20.935,-39.185
-0.073,-0.088,0.940,-2.502,24.780,-36.438
-0.146,-0.103,1.015,-7.019,26.917,-30.579
-0.158,-0.117,1.063,-7.324,24.841,-26.733
-0.147,-0.112,1.059,-4.211,16.113,-19.409
-0.070,-0.062,1.087,-2.380,8.362,-17.944
-0.024,-0.035,1.048,1.099,0.488,-17.883
0.036,0.032,0.967,12.512,-8.606,-20.447
0.030,0.038,0.892,15.808,-9.033,-22.095
-0.002,0.055,0.845,11.292,-1.526,-26.367
-0.025,0.056,0.833,6.714,3.723,-27.466
-0.049,0.066,0.879,3.235,9.216,-27.893
-0.091,0.031,0.955,0.244,13.855,-24.597
-0.094,0.018,1.002,-0.793,14.160,-24.048
-0.091,-0.000,1.112,1.160,7.996,-21.118
-0.082,-0.033,1.132,5.310,2.441,-18.982
-0.078,-0.052,1.130,9.705,-2.258,-18.311
-0.056,-0.050,1.073,18.005,-10.681,-17.090
-0.020,-0.049,1.043,20.874,-15.076,-16.907
0.021,-0.074,0.948,26.428,-18.738,-18.677

-0.188,1.543,0.849,0.916,19.470,-85.938
-0.251,1.603,0.845,-5.615,19.470,-90.576
-0.313,1.653,0.803,-7.507,19.592,-93.079
-0.446,1.769,0.577,-14.587,13.123,-93.750
-0.460,1.803,0.494,-22.339,8.972,-90.454
-0.546,1.779,0.332,-42.480,5.188,-84.778
-0.580,1.755,0.242,-55.115,2.991,-78.369
-0.656,1.714,0.051,-79.895,-11.658,-62.256
-0.678,1.669,-0.033,-94.421,-23.560,-53.223
-0.770,1.504,-0.340,-114.624,-56.335,-34.058
-0.843,1.379,-0.414,-130.249,-74.280,-22.888
-0.801,0.913,-0.398,-158.020,-125.977,9.277
-0.693,0.677,-0.393,-168.091,-153.687,28.748
-0.462,0.155,-0.089,-172.119,-177.856,55.664
-0.555,-0.166,0.108,-155.334,-160.217,63.477
-0.721,-1.219,-0.058,-97.534,-109.253,96.619
-0.867,-1.795,0.004,-69.031,-58.289,137.085
-0.766,-3.179,-0.340,-55.481,-84.290,204.407
-0.503,-3.854,-0.537,-71.228,-113.281,240.295
0.272,-4.828,-0.658,-147.644,-71.472,280.457
0.772,-4.821,-0.149,-213.623,-11.292,283.081
1.973,-3.879,1.680,-313.110,45.105,247.620
2.492,-3.126,2.904,-342.468,10.193,224.854
3.468,-1.847,4.139,-243.225,-101.013,146.301
3.865,-1.358,4.709,-80.750,-8.301,32.898
3.387,-0.643,3.843,15.625,48.645,-40.344
2.490,-0.837,2.911,96.802,83.923,-103.455
0.869,-1.104,0.809,163.452,118.774,-186.157
0.029,-1.005,0.335,149.475,139.648,-211.975
-0.950,-0.747,0.438,92.651,109.070,-186.523
-1.133,-0.552,0.489,78.430,95.642,-170.715
-1.408,-0.344,0.157,58.533,67.566,-145.569
-1.459,-0.243,0.084,49.744,55.176,-119.690
-1.327,-0.089,0.132,11.230,31.555,-67.139
-1.247,-0.039,0.255,-3.967,18.921,-49.316
-0.960,-0.033,0.475,-26.672,-2.686,-13.977
-0.779,-0.057,0.600,-33.447,-6.104,-0.427
-0.446,-0.155,0.907,-45.410,-18.738,13.855
-0.336,-0.193,1.123,-49.011,-24.292,15.137
-0.175,-0.249,1.320,-39.734,-43.274,13.794
-0.127,-0.259,1.309,-33.752,-41.931,10.681
-0.096,-0.255,1.202,-17.517,-38.574,7.935
-0.081,-0.242,1.147,-12.451,-38.330,6.042
-0.074,-0.224,1.058,-6.958,-37.231,4.395
-0.050,-0.174,0.930,-5.432,-33.997,4.272
-0.032,-0.153,0.913,-7.935,-30.029,3.418
-0.048,-0.176,0.940,-13.611,-20.020,0.488
-0.083,-0.144,0.940,-16.602,-16.663,-3.723
-0.155,-0.158,0.975,-17.029,-8.972,-6.104
-0.193,-0.155,1.068,-22.888,-2.319,-6.470
-0.234,-0.194,1.081,-22.034,-4.028,-2.136
-0.219,-0.178,1.110,-24.414,-5.066,2.869
-0.201,-0.170,1.127,-24.048,-17.212,10.620
-0.145,-0.170,1.151,-23.132,-21.912,15.320
-0.100,-0.169,1.137,-21.057,-27.954,17.273
-0.001,-0.143,1.168,-18.372,-27.710,17.212
0.031,-0.128,1.149,-15.076,-23.804,16.541
0.070,-0.118,1.129,-12.329,-18.677,14.221
0.097,-0.113,1.139,-13.000,-17.029,13.550
0.102,-0.122,1.143,-10.620,-12.390,10.498
0.124,-0.118,1.138,-10.132,-10.193,8.728
0.126,-0.130,1.131,-9.277,-3.784,4.761
0.119,-0.136,1.129,-9.399,-1.465,1.709
0.105,-0.128,1.136,-10.315,-1.404,-1.343
0.078,-0.115,1.134,-8.972,-2.991,-3.723
0.049,-0.114,1.117,-9.521,-3.235,-5.005
0.039,-0.119,1.114,-10.925,-0.610,-5.432
0.022,-0.121,1.117,-11.047,1.404,-5.005
0.004,-0.107,1.110,-11.963,3.723,-5.249
0.000,-0.111,1.109,-12.817,2.441,-6.165
0.006,-0.103,1.119,-14.099,-0.122,-5.920
0.015,-0.089,1.104,-13.062,-5.066,-5.127
-0.001,-0.088,1.095,-13.184,-6.470,-5.432
-0.012,-0.087,1.071,-13.733,-4.700,-4.578
-0.015,-0.090,1.074,-15.625,-1.526,-3.357
-0.015,-0.097,1.084,-17.578,2.136,-2.563
-0.005,-0.095,1.106,-17.395,3.601,-3.113
-0.020,-0.100,1.139,-17.761,5.310,-2.197
-0.029,-0.098,1.171,-16.357,9.094,-2.991
-0.040,-0.103,1.177,-14.404,9.521,-3.418
-0.051,-0.120,1.170,-12.573,7.324,-2.686
-0.049,-0.107,1.171,-12.085,5.615,-1.892
-0.049,-0.108,1.139,-9.155,2.869,-2.319
-0.040,-0.124,1.122,-6.714,1.892,-1.526
-0.030,-0.127,1.113,-6.470,-0.854,-1.526
-0.009,-0.117,1.086,-6.409,-0.610,-1.404
0.000,-0.128,1.067,-5.798,0.916,-1.465
0.001,-0.147,1.044,-6.897,4.272,-3.174
0.013,-0.150,1.043,-7.935,6.104,-5.066
0.019,-0.141,1.055,-10.376,6.348,-5.981
0.027,-0.167,1.088,-11.658,7.263,-7.629
0.020,-0.165,1.091,-11.841,6.348,-9.460
0.010,-0.181,1.065,-11.414,4.517,-13.184
0.010,-0.177,1.073,-12.817,2.502,-13.855
-0.002,-0.174,1.067,-13.428,2.197,-16.968
0.007,-0.149,1.051,-12.695,1.892,-18.555
-0.016,-0.162,1.039,-13.794,3.479,-19.836
-0.019,-0.165,0.977,-15.137,8.606,-20.996
-0.027,-0.174,0.996,-20.142,11.841,-22.461
-0.050,-0.177,1.022,-24.475,20.569,-23.926
-0.075,-0.188,1.057,-25.635,23.315,-24.475
-0.138,-0.205,1.071,-29.053,26.123,-25.146
-0.152,-0.212,1.099,-28.687,25.452,-23.193
-0.148,-0.220,1.183,-25.391,21.301,-20.813
-0.148,-0.204,1.196,-20.386,18.555,-20.630
-0.159,-0.187,1.095,-8.057,12.817,-17.639
-0.160,-0.187,1.052,-4.456,8.911,-16.663
-0.087,-0.152,0.973,-2.258,4.028,-11.658
-0.056,-0.120,0.936,-1.770,5.066,-10.559
-0.023,-0.093,0.924,-2.869,7.874,-12.329
-0.051,-0.158,0.914,-6.592,22.034,-15.564
-0.022,-0.140,0.942,-8.484,26.001,-17.212
-0.051,-0.158,1.021,-10.620,35.706,-24.048
-0.069,-0.168,1.068,-10.010,35.400,-26.062
-0.157,-0.194,1.122,-4.089,23.987,-30.029
-0.183,-0.172,1.110,-1.160,19.714,-28.259
-0.217,-0.146,1.044,8.118,1.770,-23.682
-0.187,-0.102,0.991,9.155,-4.578,-23.071
-0.162,-0.055,0.954,10.315,-11.108,-19.409

0.189,-1.939,0.527,-63.904,231.934,143.860
0.301,-1.948,0.667,-82.886,261.963,128.723
0.294,-1.795,1.208,-115.723,260.010,111.145
0.220,-1.569,1.704,-125.793,149.109,95.764
0.426,-1.436,1.814,-137.512,-122.009,88.074
0.570,-1.294,1.959,-116.638,-177.979,95.520
0.807,-0.928,1.942,-78.064,-210.022,76.355
0.877,-0.923,1.792,-50.232,-190.552,65.857
0.968,-0.803,1.643,-18.188,-102.722,40.833
0.854,-0.796,1.285,-8.789,-36.621,23.560
0.735,-0.694,1.316,-7.568,30.518,1.099
0.442,-0.537,1.344,9.094,90.149,-36.133
0.171,-0.469,1.260,18.738,40.466,-47.974
-0.234,-0.397,0.928,12.085,-40.344,-73.242
-0.443,-0.352,0.846,8.118,-49.438,-77.515
-0.766,-0.291,0.898,-2.686,-32.715,-73.303
-0.859,-0.279,0.977,-3.784,-14.709,-61.707
-0.836,-0.273,1.137,-1.587,13.123,-26.917
-0.700,-0.296,1.176,0.427,16.785,-6.226
-0.498,-0.311,1.173,2.563,15.442,12.451
-0.084,-0.319,1.096,5.127,-0.122,33.630
0.093,-0.300,1.055,4.272,-9.277,35.522
0.320,-0.295,1.009,1.038,-21.912,26.672
0.349,-0.280,1.023,-0.061,-23.193,17.334
0.344,-0.260,1.028,-1.465,-22.461,8.057
0.238,-0.235,1.004,-3.113,-20.508,-12.085
0.162,-0.213,1.002,-5.066,-21.851,-18.127
0.022,-0.193,1.027,-4.333,-22.034,-23.804
-0.043,-0.170,1.027,-6.470,-20.447,-23.804
-0.130,-0.154,1.002,-5.432,-16.907,-15.808
-0.157,-0.128,1.000,-7.141,-15.625,-12.268
-0.116,-0.104,1.049,-12.817,-10.437,-0.244
-0.086,-0.104,1.071,-14.099,-7.202,3.662
-0.035,-0.099,1.084,-17.639,-8.057,9.888
0.011,-0.071,1.105,-20.081,-11.902,12.634
0.031,-0.068,1.120,-20.630,-14.465,14.343
0.077,-0.086,1.147,-23.071,-16.785,12.756
0.098,-0.090,1.156,-21.851,-14.038,12.268
0.138,-0.095,1.185,-20.752,-9.399,9.827
0.153,-0.087,1.187,-17.212,-7.202,8.545
0.162,-0.075,1.191,-12.329,-2.563,7.996
0.186,-0.063,1.176,-10.315,-1.770,8.057
0.184,-0.057,1.162,-6.958,0.061,5.493
0.171,-0.063,1.134,-6.775,1.587,2.625
0.177,-0.053,1.117,-5.981,2.075,0.366
0.171,-0.051,1.109,-7.324,3.601,-1.404
0.161,-0.035,1.100,-8.789,8.362,-4.028
0.154,-0.054,1.104,-8.484,10.742,-5.127
0.114,-0.065,1.094,-8.667,15.259,-6.104
0.113,-0.060,1.092,-9.460,15.503,-7.324
0.113,-0.055,1.082,-9.949,15.991,-7.263
0.107,-0.056,1.072,-10.315,15.625,-5.798
0.099,-0.067,1.074,-10.620,14.404,-6.287
0.082,-0.057,1.064,-7.385,16.663,-5.249
0.085,-0.034,1.044,-8.728,17.883,-4.761
0.077,-0.033,1.033,-8.606,20.508,-5.859
0.066,-0.043,1.029,-8.911,21.118,-5.615
0.049,-0.042,1.042,-10.803,20.569,-5.798
0.011,-0.050,1.050,-12.085,19.409,-7.202
0.010,-0.039,1.057,-12.756,19.226,-5.432
0.014,-0.056,1.053,-14.526,17.944,-3.845
0.013,-0.067,1.035,-15.076,16.357,-2.869
0.031,-0.082,1.024,-16.357,12.329,-1.831
0.047,-0.072,1.039,-20.142,7.996,-1.526
0.058,-0.064,1.049,-20.874,6.226,-1.282
0.077,-0.064,1.052,-20.935,4.517,-3.723
0.068,-0.069,1.054,-20.081,5.554,-4.883
0.064,-0.079,1.057,-18.616,8.423,-9.705
0.029,-0.083,1.053,-17.944,8.545,-11.719
0.010,-0.078,1.054,-17.273,7.507,-10.864
-0.021,-0.077,1.036,-17.395,4.333,-10.559
-0.035,-0.076,1.023,-17.029,2.930,-9.399
-0.039,-0.084,1.048,-17.090,1.709,-8.301
-0.040,-0.079,1.051,-16.968,0.732,-8.118
-0.038,-0.069,1.042,-17.395,-1.831,-6.470
-0.032,-0.099,1.057,-19.470,-3.723,-7.446
-0.027,-0.097,1.068,-19.653,-3.235,-6.470
-0.006,-0.113,1.075,-20.569,-4.272,-5.798
-0.010,-0.119,1.081,-19.836,-4.333,-4.761
0.011,-0.150,1.112,-18.555,-7.629,-4.272
0.021,-0.164,1.125,-17.395,-8.606,-3.723
0.038,-0.176,1.144,-13.855,-8.240,-6.592
0.042,-0.172,1.136,-11.841,-7.812,-7.507
0.045,-0.166,1.113,-10.254,-5.615,-8.728
0.040,-0.186,1.119,-10.376,-3.723,-9.216
0.059,-0.180,1.104,-10.071,-1.831,-11.414
0.083,-0.173,1.111,-9.277,2.441,-13.245
0.089,-0.196,1.117,-8.606,2.625,-16.479
0.083,-0.199,1.113,-6.775,1.770,-21.667
0.063,-0.210,1.107,-5.676,0.916,-24.536
0.036,-0.204,1.111,-4.211,-0.427,-28.015
-0.009,-0.199,1.073,-0.977,-1.709,-31.372
-0.032,-0.178,1.058,-0.793,-1.892,-32.043
-0.046,-0.135,1.007,-1.404,-3.296,-30.334
-0.035,-0.133,0.990,-2.686,-3.113,-28.320
0.009,-0.132,0.990,-5.127,0.916,-26.794
0.018,-0.135,0.992,-5.737,6.165,-27.405
-0.015,-0.143,1.035,-7.385,17.639,-32.104
-0.033,-0.159,1.043,-8.118,21.729,-32.654
-0.065,-0.153,1.056,-8.850,23.254,-34.119
-0.105,-0.177,1.096,-8.179,21.362,-33.875
-0.109,-0.188,1.147,-7.446,18.250,-31.982
-0.116,-0.176,1.203,-4.761,8.911,-29.724
-0.112,-0.195,1.175,0.610,4.211,-28.076
-0.054,-0.137,1.104,11.169,-4.333,-22.827
-0.029,-0.139,1.052,14.648,-8.606,-21.790
0.014,-0.115,0.931,14.282,-10.925,-19.897
0.025,-0.102,0.909,12.085,-10.010,-20.996
0.035,-0.075,0.914,5.615,-4.517,-24.536
0.016,-0.080,0.968,2.563,-0.366,-28.625
-0.021,-0.103,0.992,3.052,4.639,-30.273
-0.098,-0.120,1.065,0.793,10.742,-31.433
-0.122,-0.105,1.113,0.549,11.475,-29.724
-0.162,-0.156,1.156,3.540,8.301,-24.109
-0.149,-0.161,1.156,5.981,3.784,-20.020
-0.119,-0.169,1.155,7.690,0.000,-16.602
-0.020,-0.108,1.111,13.367,-12.268,-12.634
0.016,-0.091,1.052,18.311,-16.968,-11.841
0.052,-0.077,0.909,21.362,-23.743,-14.832

-0.579,-1.785,0.221,-130.737,-2.014,35.339
-0.612,-2.139,0.434,-142.822,-36.316,52.368
-0.759,-2.838,0.725,-176.392,-141.296,93.323
-0.739,-3.184,0.878,-186.035,-166.870,118.286
-0.238,-3.331,1.342,-204.102,-77.454,171.082
0.090,-3.097,1.682,-201.233,-10.010,190.369
0.738,-2.637,2.383,-216.492,97.717,179.077
1.142,-2.249,2.623,-197.998,164.368,180.298
1.802,-1.448,2.752,-143.921,109.802,152.039
2.314,-1.176,2.635,-118.408,-25.330,128.235
2.614,-0.972,2.235,-36.316,-162.354,19.348
2.243,-0.833,2.006,-3.540,-135.071,-46.021
1.129,-0.792,1.204,44.983,-64.819,-139.954
0.518,-0.791,1.046,48.767,-8.362,-169.189
-0.376,-0.710,0.845,49.744,62.683,-179.871
-0.629,-0.613,0.783,46.204,69.397,-169.495
-1.104,-0.462,0.621,35.950,74.402,-150.146
-1.244,-0.387,0.574,27.832,75.989,-133.301
-1.275,-0.224,0.590,6.470,65.613,-87.952
-1.222,-0.148,0.688,-4.211,55.420,-67.383
-1.126,-0.118,0.772,-10.986,39.612,-46.875
-0.900,-0.134,0.907,-22.644,14.099,-17.273
-0.780,-0.141,1.023,-27.283,3.967,-6.653
-0.523,-0.190,1.190,-29.358,-15.442,5.676
-0.418,-0.203,1.260,-28.870,-25.085,7.385
-0.254,-0.219,1.305,-22.705,-38.818,7.874
-0.210,-0.198,1.296,-17.822,-40.894,6.714
-0.184,-0.184,1.178,-8.179,-44.128,3.235
-0.199,-0.185,1.106,-4.761,-40.649,4.944
-0.150,-0.156,0.985,-2.380,-29.236,9.644
-0.095,-0.150,0.970,-2.441,-24.536,12.695
-0.045,-0.150,0.965,-3.601,-18.982,15.625
0.036,-0.155,0.968,-5.127,-7.751,12.512
0.043,-0.155,0.979,-7.141,-4.761,11.597
0.022,-0.123,1.022,-13.794,-9.033,5.371
0.015,-0.165,1.054,-12.878,-9.705,3.235
0.006,-0.146,1.058,-13.123,-4.272,1.648
-0.025,-0.129,1.116,-13.306,-4.944,-0.244
-0.072,-0.128,1.123,-11.169,-7.690,-0.671
-0.119,-0.099,1.091,-10.498,-16.846,3.662
-0.115,-0.077,1.071,-11.536,-17.761,7.324
-0.081,-0.068,1.046,-11.230,-17.334,12.085
-0.054,-0.060,1.038,-10.376,-14.038,14.648
0.004,-0.042,1.042,-11.108,-6.104,15.259
0.015,-0.044,1.023,-10.315,-5.554,15.869
0.041,-0.041,1.032,-13.062,-1.831,13.489
0.043,-0.037,1.047,-13.916,-1.038,12.695
0.063,-0.034,1.063,-13.794,0.610,12.024
0.080,-0.039,1.089,-13.733,0.122,11.047
0.089,-0.038,1.101,-12.878,-1.587,10.071
0.074,-0.023,1.108,-10.742,1.343,6.409
0.055,-0.031,1.111,-9.338,1.099,4.578
0.039,-0.032,1.108,-8.789,0.244,5.676
0.040,-0.023,1.100,-9.766,-0.549,5.371
0.052,-0.028,1.091,-8.179,-1.282,6.226
0.053,-0.034,1.089,-8.362,-2.197,6.226
0.065,-0.031,1.072,-7.751,1.160,7.019
0.077,-0.026,1.066,-8.484,1.709,5.798
0.086,-0.023,1.080,-8.911,3.540,3.967
0.090,-0.013,1.085,-8.728,3.662,1.465
0.069,-0.017,1.097,-9.155,4.089,-0.183
0.049,-0.024,1.080,-8.240,6.714,-3.784
0.033,-0.028,1.086,-8.057,8.667,-4.089
0.021,-0.039,1.089,-7.996,8.484,-5.493
0.011,-0.040,1.098,-8.667,5.676,-6.409
0.012,-0.048,1.097,-8.179,4.639,-5.798
0.012,-0.052,1.099,-7.385,5.005,-8.301
-0.011,-0.058,1.105,-7.385,5.981,-8.545
-0.024,-0.061,1.111,-8.423,6.287,-9.521
-0.047,-0.070,1.115,-6.958,6.958,-11.963
-0.069,-0.060,1.127,-6.287,7.690,-12.207
-0.095,-0.064,1.138,-4.089,6.836,-10.376
-0.086,-0.066,1.138,-2.930,5.493,-9.644
-0.093,-0.071,1.136,-2.991,4.761,-10.071
-0.106,-0.075,1.105,-0.793,3.052,-9.155
-0.103,-0.074,1.118,0.122,1.831,-8.362
-0.101,-0.083,1.087,2.502,-0.122,-8.179
-0.095,-0.077,1.081,2.869,-0.366,-6.714
-0.088,-0.088,1.065,2.319,-0.244,-7.507
-0.088,-0.102,1.060,1.343,2.075,-8.362
-0.091,-0.097,1.071,1.038,2.075,-8.606
-0.079,-0.090,1.076,2.319,3.357,-9.277
-0.063,-0.080,1.072,2.319,3.845,-10.254
-0.071,-0.082,1.078,3.723,5.981,-11.108
-0.071,-0.086,1.076,5.188,7.019,-13.184
-0.080,-0.070,1.085,4.700,6.775,-13.123
-0.095,-0.080,1.073,6.226,7.324,-15.015
-0.104,-0.066,1.064,7.690,6.592,-14.160
-0.096,-0.075,1.068,8.850,6.348,-13.977
-0.095,-0.053,1.033,9.705,2.380,-13.733
-0.095,-0.038,1.021,9.521,0.244,-13.245
-0.088,-0.030,1.008,10.254,-3.479,-14.709
-0.088,-0.037,1.016,10.437,-2.869,-15.320
-0.093,-0.053,1.019,10.498,-2.991,-15.625
-0.110,-0.052,1.049,6.348,-2.258,-17.761
-0.101,-0.065,1.027,5.798,-3.418,-18.738
-0.107,-0.080,1.062,6.592,-3.235,-15.442
-0.101,-0.102,1.060,6.409,-3.418,-14.343
-0.095,-0.097,1.084,3.906,-6.653,-12.451
-0.079,-0.085,1.095,2.930,-7.446,-13.245
-0.062,-0.052,1.100,4.700,-5.737,-12.939
-0.027,-0.015,1.117,6.775,-3.906,-14.160
-0.021,-0.015,1.100,8.423,-2.686,-15.320
-0.043,-0.008,1.068,12.695,3.357,-20.020
-0.070,0.005,1.055,12.634,5.615,-21.790
-0.100,-0.014,1.031,14.832,7.935,-23.315
-0.111,0.000,1.022,15.442,7.202,-22.766
-0.111,-0.018,1.031,13.428,7.141,-22.339
-0.106,-0.009,1.035,13.306,5.798,-18.982
-0.089,-0.020,1.030,12.756,5.249,-18.250
-0.037,0.020,0.991,13.428,5.615,-17.029
-0.023,0.043,0.985,13.367,6.958,-16.724
-0.036,0.038,0.991,14.099,6.775,-18.616
-0.054,0.021,0.981,14.709,6.592,-20.386
-0.073,0.042,0.969,14.709,7.996,-21.973
-0.118,0.045,0.967,12.634,12.817,-23.437
-0.145,0.033,0.979,11.963,15.198,-22.156
-0.178,0.039,1.014,8.484,17.822,-21.606
-0.193,0.063,1.049,8.728,18.066,-20.996

-0.363,1.360,0.786,-14.648,51.880,-142.883
-0.425,1.379,0.706,-24.963,34.424,-144.592
-0.523,1.514,0.515,-38.086,-11.902,-143.066
-0.570,1.562,0.482,-45.410,-36.987,-138.184
-0.714,1.599,0.266,-54.932,-86.060,-125.000
-0.730,1.544,0.093,-58.228,-105.591,-109.314
-0.850,1.382,-0.212,-86.304,-139.709,-83.862
-0.838,1.333,-0.372,-100.159,-154.114,-66.772
-0.856,1.053,-0.658,-135.315,-179.565,-34.973
-0.889,0.875,-0.778,-153.198,-185.791,-19.897
-0.840,0.496,-0.814,-192.627,-176.025,16.968
-0.740,0.284,-0.661,-209.045,-163.391,38.391
-0.455,-0.214,-0.327,-219.055,-140.991,72.815
-0.310,-0.503,-0.260,-204.102,-125.671,104.858
0.068,-1.406,-0.072,-190.063,-117.126,113.892
0.396,-2.322,0.402,-166.748,-112.549,126.892
0.461,-2.588,0.368,-145.630,-171.143,144.958
0.403,-3.456,-0.106,-125.671,-249.084,163.208
0.319,-3.775,-0.129,-132.080,-244.812,179.199
0.338,-3.819,0.494,-191.956,-141.724,204.773
0.556,-3.437,1.082,-224.609,-47.119,216.492
1.276,-2.489,2.824,-261.353,164.551,217.651
1.832,-1.997,3.639,-266.846,203.430,211.548
3.386,-0.968,4.558,-155.151,112.915,189.880
3.861,-0.882,3.925,-55.969,60.791,142.151
3.559,-0.838,2.722,104.431,-90.027,-20.874
2.687,-1.095,1.632,149.902,-81.787,-116.455
0.615,-1.196,0.380,153.564,38.025,-230.774
-0.283,-1.039,0.313,124.268,82.092,-251.404
-1.343,-0.595,0.430,77.637,125.916,-208.679
-1.478,-0.408,0.397,66.406,127.258,-175.476
-1.508,-0.185,0.360,40.466,116.882,-108.948
-1.371,-0.129,0.376,30.518,97.961,-79.956
-1.061,-0.067,0.515,6.592,58.105,-41.443
-0.949,-0.059,0.623,-1.953,40.955,-27.710
-0.668,-0.117,0.837,-10.681,14.832,-5.920
-0.512,-0.164,0.937,-12.939,6.775,1.526
-0.296,-0.249,1.081,-14.526,6.348,7.812
-0.244,-0.256,1.108,-13.062,6.104,6.226
-0.247,-0.254,1.096,-10.254,5.920,4.333
-0.300,-0.208,1.004,-5.676,1.770,-0.610
-0.313,-0.182,0.938,-4.272,-1.587,-0.366
-0.316,-0.128,0.858,-6.165,-5.493,3.296
-0.291,-0.100,0.850,-9.033,-4.700,5.920
-0.250,-0.088,0.871,-10.986,-2.075,7.141
-0.207,-0.076,0.938,-15.686,3.296,6.653
-0.194,-0.080,0.979,-17.029,4.639,5.432
-0.199,-0.104,1.044,-16.541,5.310,5.615
-0.194,-0.105,1.057,-15.564,5.859,5.676
-0.203,-0.106,1.049,-14.221,4.395,4.822
-0.212,-0.100,0.974,-15.686,0.122,6.470
-0.210,-0.089,0.965,-17.639,-2.075,8.911
-0.169,-0.062,0.989,-21.362,-6.714,12.817
-0.157,-0.066,1.016,-22.827,-6.836,14.771
-0.147,-0.066,1.029,-21.362,-3.967,18.311
-0.114,-0.061,1.043,-23.743,-4.089,20.508
-0.100,-0.069,1.059,-24.963,-4.211,23.743
-0.046,-0.080,1.106,-24.353,-4.028,23.254
-0.010,-0.093,1.118,-23.010,-4.395,22.156
0.066,-0.087,1.102,-17.517,-5.615,19.409
0.082,-0.073,1.079,-14.709,-5.737,16.052
0.086,-0.073,1.041,-16.541,-6.409,8.728
0.086,-0.072,1.046,-15.198,-4.883,5.249
0.051,-0.085,1.054,-14.832,0.854,0.305
0.036,-0.077,1.055,-15.503,3.479,-2.075
-0.024,-0.084,1.062,-15.625,5.127,-4.700
-0.088,-0.091,1.062,-14.648,7.324,-4.333
-0.101,-0.091,1.074,-15.442,5.554,-3.967
-0.083,-0.073,1.055,-15.198,1.282,-0.916
-0.075,-0.045,1.051,-14.404,0.977,-0.366
-0.065,-0.050,1.033,-15.259,-0.549,-1.221
-0.060,-0.048,1.023,-15.686,-0.244,-0.427
-0.058,-0.056,1.034,-15.625,-0.244,-0.183
-0.063,-0.056,1.040,-18.250,1.221,-1.831
-0.075,-0.049,1.054,-19.348,1.953,-1.709
-0.089,-0.050,1.083,-18.066,2.686,-2.686
-0.091,-0.053,1.092,-16.357,1.526,-2.869
-0.129,-0.052,1.085,-14.221,-0.610,-5.066
-0.139,-0.077,1.074,-15.137,-3.723,-3.784
-0.140,-0.080,1.077,-15.015,-5.676,-2.747
-0.128,-0.057,1.063,-15.503,-6.592,-2.075
-0.126,-0.067,1.065,-15.015,-6.470,-2.563
-0.126,-0.078,1.064,-14.404,-4.883,-1.709
-0.116,-0.079,1.064,-13.367,-5.310,-1.160
-0.111,-0.078,1.050,-12.390,-6.348,-1.709
-0.115,-0.087,1.047,-15.259,-7.385,-2.808
-0.119,-0.092,1.023,-14.282,-7.507,-1.953
-0.117,-0.088,1.032,-14.343,-5.188,-1.892
-0.119,-0.099,1.041,-14.954,-3.906,-2.197
-0.122,-0.098,1.034,-13.794,-3.357,-1.770
-0.119,-0.098,1.029,-12.939,-3.113,-0.427
-0.124,-0.098,1.041,-11.597,-2.991,-0.305
-0.109,-0.112,1.035,-10.010,-1.587,-0.122
-0.096,-0.092,1.021,-11.536,-1.221,0.732
-0.101,-0.092,1.012,-11.047,-2.258,-0.427
-0.100,-0.098,1.004,-12.756,-1.282,-2.136
-0.110,-0.091,1.009,-10.498,0.732,-2.563
-0.134,-0.090,1.030,-12.390,2.197,-2.808
-0.146,-0.091,1.037,-10.315,1.892,-2.197
-0.172,-0.103,1.039,-11.597,-1.160,-3.418
-0.184,-0.099,1.036,-11.841,-2.319,-2.625
-0.194,-0.102,1.039,-10.681,-3.296,-0.244
-0.196,-0.092,1.028,-10.620,-4.089,0.427
-0.195,-0.093,1.031,-12.390,-2.014,0.977
-0.182,-0.097,1.028,-12.146,0.977,2.869
-0.174,-0.102,1.036,-12.207,1.587,3.967
-0.165,-0.100,1.040,-11.230,2.014,4.150
-0.168,-0.100,1.048,-11.597,1.831,3.723
-0.161,-0.124,1.049,-12.085,1.770,3.601
-0.158,-0.131,1.082,-11.108,3.052,2.991
-0.133,-0.134,1.107,-11.292,2.075,2.563
-0.129,-0.160,1.118,-7.935,2.014,1.404
-0.132,-0.165,1.132,-8.362,1.465,1.099
-0.122,-0.163,1.142,-7.263,1.099,1.892
-0.111,-0.166,1.131,-3.235,-0.366,-0.061
-0.105,-0.154,1.118,0.000,-1.831,-0.427
-0.077,-0.140,1.057,2.625,-1.831,-2.502
-0.072,-0.122,1.026,1.709,-2.869,-3.540
-0.081,-0.116,1.002,2.563,-1.282,-4.456

0.072,-2.664,0.090,-112.732,-189.819,130.859
0.198,-2.889,0.193,-138.672,-199.890,143.066
0.428,-3.062,0.718,-196.594,-175.232,169.617
0.558,-3.015,1.155,-217.529,-133.179,179.687
0.948,-2.394,2.148,-224.487,3.601,192.505
1.236,-1.970,2.602,-208.618,74.707,192.261
2.224,-1.124,3.056,-161.072,137.146,176.758
2.674,-0.785,3.365,-135.925,115.234,147.095
3.191,-0.228,3.374,-33.752,-3.784,74.219
3.219,-0.368,2.417,52.551,-101.868,22.095
1.928,-0.673,1.346,72.937,-89.355,-139.587
0.898,-0.651,0.935,74.341,-26.184,-200.317
0.051,-0.589,0.802,48.767,72.144,-224.976
-0.974,-0.477,0.842,32.471,84.045,-201.355
-1.104,-0.430,0.821,28.381,83.191,-167.358
-1.137,-0.231,0.701,16.174,78.979,-117.920
-1.156,-0.114,0.669,9.766,76.538,-98.083
-1.143,-0.032,0.633,-2.625,65.002,-60.486
-1.120,-0.034,0.659,-10.132,56.458,-42.053
-0.918,-0.028,0.840,-29.358,25.146,-5.005
-0.766,-0.059,0.998,-34.729,4.517,12.878
-0.346,-0.112,1.252,-38.635,-25.391,33.569
-0.122,-0.110,1.324,-35.645,-29.236,35.522
0.094,-0.111,1.365,-20.203,-31.372,32.227
0.163,-0.159,1.318,-11.963,-40.405,26.611
0.182,-0.145,1.222,-4.883,-4.700,8.484
0.137,-0.102,1.169,-1.221,13.977,1.892
0.092,-0.078,1.094,2.014,17.761,-2.991
-0.000,-0.047,1.019,4.395,10.010,-8.484
-0.033,-0.035,0.997,2.747,0.671,-9.399
-0.061,-0.002,0.979,1.892,-5.310,-9.949
-0.095,0.010,0.936,-1.160,-15.625,-6.165
-0.078,0.002,0.928,-3.723,-18.799,-1.282
-0.065,-0.004,0.924,-9.155,-16.907,2.502
-0.042,0.012,0.960,-10.803,-9.583,4.150
-0.008,0.007,1.000,-14.099,3.052,6.897
0.008,0.018,1.022,-15.198,5.005,7.874
0.036,0.025,1.040,-16.174,4.395,8.301
0.056,0.034,1.071,-17.151,0.366,7.568
0.073,0.039,1.088,-17.212,-1.587,6.531
0.078,0.054,1.086,-16.418,-0.854,6.165
0.050,0.062,1.071,-13.855,0.488,5.554
0.032,0.047,1.048,-13.550,0.671,6.714
0.023,0.052,1.046,-16.602,0.305,6.042
0.024,0.073,1.058,-18.738,2.991,9.094
0.035,0.057,1.052,-18.982,3.967,9.949
0.044,0.057,1.052,-19.714,3.845,12.329
0.100,0.047,1.113,-18.677,-0.488,13.611
0.118,0.061,1.125,-15.137,-5.615,14.832
0.157,0.056,1.078,-10.498,-15.259,12.695
0.175,0.071,1.067,-12.207,-17.761,10.986
0.183,0.064,1.058,-13.489,-16.541,8.240
0.193,0.078,1.077,-13.550,-8.850,2.991
0.187,0.071,1.080,-13.550,-3.235,-0.244
0.151,0.062,1.101,-12.756,5.554,-4.272
0.122,0.069,1.111,-13.428,6.958,-6.348
0.088,0.060,1.108,-13.245,7.568,-7.324
0.042,0.066,1.105,-12.024,4.944,-5.798
0.030,0.068,1.103,-11.963,1.709,-5.005
0.040,0.083,1.096,-9.949,0.549,-2.136
0.045,0.093,1.062,-10.010,1.038,-2.075
0.048,0.086,1.062,-10.925,0.671,-0.732
0.070,0.090,1.068,-10.864,4.761,0.977
0.067,0.080,1.071,-11.597,5.554,0.183
0.069,0.076,1.077,-11.414,6.042,0.977
0.073,0.053,1.060,-10.376,4.822,0.671
0.090,0.054,1.055,-10.193,2.258,0.366
0.109,0.045,1.036,-10.803,0.732,-0.366
0.106,0.052,1.019,-9.033,-0.793,-4.150
0.090,0.039,1.010,-10.132,-1.160,-6.104
0.081,0.049,1.017,-10.742,-0.244,-8.484
0.058,0.066,1.004,-11.658,-0.427,-8.545
0.030,0.057,1.013,-11.841,1.099,-8.301
-0.010,0.054,1.021,-12.207,5.249,-7.935
-0.027,0.047,1.022,-11.292,5.981,-7.629
-0.025,0.051,1.018,-10.498,6.287,-6.470
-0.023,0.043,1.030,-11.169,5.432,-4.700
-0.030,0.023,1.035,-10.986,3.906,-3.052
-0.010,0.042,1.025,-11.047,2.869,-1.282
-0.000,0.034,1.018,-11.108,2.258,-1.465
0.002,0.046,1.018,-10.742,2.441,-3.052
0.008,0.034,1.015,-10.620,1.770,-2.930
-0.012,0.030,0.993,-11.597,2.014,-3.418
-0.028,0.045,0.987,-12.756,2.747,-4.150
-0.038,0.062,0.990,-13.916,2.502,-3.540
-0.049,0.055,0.992,-15.686,1.648,-2.502
-0.039,0.037,1.015,-17.578,2.625,-1.038
-0.046,0.042,1.026,-18.494,1.160,-1.404
-0.052,0.039,1.035,-19.409,-2.625,0.183
-0.042,0.022,1.047,-18.311,-3.601,1.648
-0.044,0.026,1.060,-20.203,-4.211,1.953
-0.010,0.024,1.076,-19.775,-3.174,2.869
0.005,0.011,1.079,-19.226,-1.587,3.296
0.015,0.010,1.073,-18.738,0.610,3.174
0.021,0.004,1.077,-18.738,1.282,1.709
0.019,0.022,1.069,-18.188,1.526,0.366
0.017,0.002,1.063,-18.188,1.343,-0.427
0.005,0.014,1.071,-18.127,1.587,-1.831
-0.006,0.018,1.071,-18.066,2.136,-2.197
-0.019,0.012,1.066,-16.052,1.892,-2.319
-0.019,0.016,1.058,-16.235,0.671,-1.343
-0.010,-0.005,1.063,-16.296,-0.183,0.793
-0.002,0.009,1.067,-16.479,-0.427,0.793
-0.013,0.004,1.064,-16.907,-0.977,1.343
0.004,0.005,1.081,-16.968,-1.099,1.587
0.017,-0.005,1.083,-15.869,-1.892,2.380
0.017,-0.006,1.073,-15.625,-1.709,1.099
0.019,0.021,1.071,-15.198,-2.808,0.549
0.014,0.029,1.067,-14.587,-4.211,0.183
0.020,0.025,1.052,-12.573,-4.822,-1.282
0.013,0.028,1.043,-11.658,-4.517,-0.732
0.000,0.030,1.033,-9.949,-1.343,-1.160
-0.008,0.029,1.042,-10.620,-0.183,-1.770
-0.012,0.025,1.045,-11.230,1.038,-1.038
-0.011,0.020,1.061,-12.939,2.075,-0.977
-0.013,0.018,1.074,-11.658,1.709,0.610
-0.004,0.015,1.062,-11.841,-0.122,0.549
0.010,0.017,1.066,-12.756,-2.075,0.916
-0.005,0.027,1.069,-12.451,-3.113,0.427

-0.495,1.319,0.749,-64.209,-8.301,-12.939
-0.510,1.279,0.740,-59.021,12.634,8.362
-0.547,1.161,0.711,-53.650,29.358,27.649
-0.538,1.000,0.612,-41.870,69.275,59.875
-0.554,0.902,0.605,-35.767,84.290,78.613
-0.393,0.610,0.442,-30.701,88.013,94.849
-0.356,0.497,0.323,-28.564,83.252,98.328
-0.201,0.129,0.037,-27.222,52.307,97.717
-0.118,-0.083,-0.181,-35.889,33.997,92.285
-0.030,-0.295,-0.353,-84.717,-35.278,75.134
0.072,-0.853,-0.558,-115.662,-87.830,62.073
0.032,-1.141,-0.514,-175.354,-191.589,43.213
-0.114,-1.739,-0.310,-199.402,-232.971,43.030
-0.220,-2.459,-0.018,-233.521,-274.414,54.749
-0.286,-2.750,0.239,-245.911,-255.737,66.101
-0.270,-3.165,0.906,-258.850,-131.165,88.745
-0.161,-3.143,1.322,-261.108,-43.091,98.206
0.117,-2.670,2.281,-250.122,140.137,102.295
0.193,-2.250,3.080,-255.920,182.434,96.497
1.061,-1.302,3.721,-234.436,39.185,98.999
1.499,-0.940,4.270,-200.134,-15.808,97.839
2.948,-0.518,3.955,-36.133,-195.557,84.839
3.236,-0.407,2.875,43.152,-171.143,32.227
2.033,-0.614,1.245,113.098,-48.828,-128.174
0.942,-0.701,0.722,119.446,21.912,-193.665
-0.741,-0.515,0.378,91.370,110.291,-227.051
-1.140,-0.472,0.284,76.721,110.291,-200.867
-1.518,-0.291,0.144,40.588,69.275,-146.179
-1.707,-0.168,0.186,22.949,52.124,-126.831
-1.800,-0.031,0.121,-2.380,11.902,-68.420
-1.644,-0.008,0.112,-15.808,-8.240,-32.593
-1.332,-0.001,0.169,-47.607,-38.818,27.039
-0.656,-0.117,0.489,-60.425,-44.617,44.006
-0.321,-0.149,0.731,-72.144,-49.072,53.650
0.260,-0.225,1.182,-75.989,-44.617,50.110
0.404,-0.233,1.349,-68.848,-32.593,37.354
0.413,-0.245,1.500,-49.561,-0.916,3.662
0.304,-0.254,1.493,-38.452,13.306,-11.047
0.055,-0.195,1.432,-19.836,31.006,-24.963
-0.020,-0.170,1.375,-7.812,13.672,-25.879
-0.060,-0.114,1.233,-2.441,-2.075,-26.794
-0.084,-0.094,1.180,1.038,-1.221,-26.123
-0.138,-0.060,1.065,3.479,-11.414,-27.954
-0.188,-0.052,1.004,3.601,-15.015,-27.100
-0.251,-0.023,0.956,-4.028,-16.968,-28.564
-0.299,-0.039,0.938,-9.094,-8.484,-17.944
-0.286,-0.017,0.953,-14.648,-1.404,-11.658
-0.259,-0.011,0.994,-19.897,4.578,-2.563
-0.212,0.008,1.007,-22.217,4.883,0.610
-0.128,-0.034,1.031,-28.198,2.808,9.033
-0.094,-0.050,1.062,-31.799,-1.709,13.428
-0.021,-0.049,1.159,-36.560,-9.766,15.320
0.015,-0.041,1.209,-36.377,-11.963,15.381
0.060,-0.051,1.243,-35.095,-12.817,15.808
0.124,-0.072,1.262,-26.245,-8.850,11.536
0.137,-0.070,1.246,-21.912,-6.531,7.996
0.125,-0.071,1.215,-14.221,-3.052,2.808
0.117,-0.070,1.188,-11.597,-3.052,0.122
0.104,-0.061,1.135,-8.118,-0.122,-3.113
0.085,-0.055,1.117,-7.629,0.244,-3.479
0.085,-0.046,1.113,-6.348,0.671,-2.625
0.056,-0.048,1.085,-8.301,-0.305,-5.554
0.047,-0.047,1.092,-8.667,-1.038,-6.775
0.040,-0.046,1.099,-10.803,-1.648,-5.493
0.029,-0.047,1.100,-10.620,-0.732,-6.409
0.011,-0.045,1.110,-8.850,0.549,-6.165
-0.003,-0.040,1.098,-8.606,3.113,-7.629
-0.002,-0.026,1.089,-9.583,4.517,-6.042
-0.001,-0.019,1.059,-9.888,5.859,-5.554
-0.001,-0.030,1.060,-8.850,5.554,-5.310
-0.005,-0.031,1.061,-10.071,5.737,-5.493
0.002,-0.008,1.044,-9.827,7.202,-5.737
0.008,-0.006,1.039,-9.583,7.996,-4.761
0.006,-0.033,1.040,-11.597,8.118,-6.226
-0.010,-0.036,1.058,-11.780,8.240,-7.324
-0.014,-0.025,1.076,-11.597,7.996,-7.812
-0.025,-0.043,1.077,-11.230,8.057,-7.446
-0.021,-0.053,1.071,-9.705,7.568,-7.812
-0.008,-0.064,1.050,-7.751,6.348,-5.249
-0.005,-0.053,1.043,-7.019,5.432,-5.127
0.001,-0.053,1.040,-7.202,-0.122,-7.568
0.009,-0.015,0.982,-5.737,-0.916,-7.385
0.003,-0.018,0.978,-6.470,-2.258,-8.118
-0.018,-0.029,0.980,-8.850,2.686,-10.986
-0.052,-0.028,0.999,-9.460,6.348,-12.085
-0.107,-0.046,1.028,-11.597,6.531,-11.414
-0.131,-0.055,1.045,-12.512,6.165,-10.437
-0.137,-0.050,1.056,-12.329,4.639,-8.606
-0.118,-0.058,1.047,-11.475,0.366,-3.723
-0.095,-0.050,1.038,-10.498,-3.174,-2.808
-0.065,-0.056,0.978,-9.583,-7.751,-0.122
-0.042,-0.042,0.960,-11.475,-8.240,-0.366
-0.020,-0.043,0.968,-13.123,-3.052,-0.793
-0.018,-0.050,0.999,-13.672,0.671,-1.709
-0.038,-0.045,1.017,-12.695,4.150,-5.127
-0.074,-0.038,1.022,-12.451,4.761,-5.615
-0.082,-0.034,1.034,-12.451,3.052,-4.883
-0.103,-0.029,1.041,-11.230,-0.916,-3.723
-0.104,-0.024,1.034,-11.108,-1.404,-3.235
-0.102,-0.040,1.009,-9.460,-4.333,-1.709
-0.100,-0.033,1.010,-10.864,-4.272,-0.671
-0.095,-0.049,1.024,-11.108,-3.296,-0.183
-0.080,-0.042,1.040,-11.780,-3.662,-0.305
-0.058,-0.050,1.058,-12.207,-2.258,2.258
-0.047,-0.046,1.058,-11.658,-1.770,1.831
-0.040,-0.056,1.062,-10.742,-1.587,1.221
-0.037,-0.051,1.050,-11.353,-1.953,-1.343
-0.048,-0.046,1.061,-11.841,-2.869,-0.427
-0.053,-0.049,1.040,-11.292,-4.578,-1.465
-0.050,-0.062,1.041,-11.902,-3.723,-3.662
-0.072,-0.051,1.045,-11.902,-0.732,-4.517
-0.084,-0.054,1.048,-11.353,0.305,-4.761
-0.093,-0.043,1.044,-11.353,-1.160,-4.761
-0.105,-0.042,1.051,-11.780,-1.831,-3.357
-0.098,-0.048,1.063,-11.719,-2.625,-1.831
-0.088,-0.042,1.072,-10.925,-3.052,-0.549
-0.079,-0.054,1.076,-9.705,-2.625,-0.488
-0.066,-0.066,1.049,-9.705,-3.296,0.244
-0.050,-0.053,1.064,-11.414,-3.784,-0.793

-0.250,1.372,0.923,-19.226,8.362,-52.612
-0.232,1.386,0.935,-16.418,5.127,-50.537
-0.226,1.403,0.913,-12.939,4.333,-49.438
-0.267,1.447,0.922,-16.418,14.343,-49.683
-0.300,1.453,0.917,-17.212,20.874,-49.133
-0.435,1.453,0.839,-18.738,28.992,-41.992
-0.441,1.509,0.826,-22.034,31.372,-38.452
-0.422,1.682,0.811,-35.278,31.189,-29.663
-0.430,1.715,0.789,-39.612,24.231,-25.391
-0.433,1.662,0.691,-41.992,-2.563,-10.498
-0.395,1.559,0.598,-38.208,-16.968,-2.625
-0.376,1.237,0.278,-37.292,-40.527,12.634
-0.342,1.052,0.131,-39.856,-50.049,19.775
-0.293,0.897,-0.002,-46.570,-60.913,29.053
-0.233,0.525,-0.207,-66.895,-83.496,38.818
-0.111,0.240,-0.365,-73.608,-46.204,41.870
-0.249,-0.288,-0.380,-98.022,-64.636,40.344
-0.256,-0.586,-0.477,-107.971,-96.008,44.067
-0.260,-1.491,-0.555,-136.841,-139.954,53.589
-0.312,-2.017,-0.503,-176.086,-175.232,70.313
-0.374,-2.829,-0.205,-195.251,-179.260,87.830
-0.220,-3.468,0.299,-227.417,-166.443,139.160
-0.107,-3.658,0.594,-239.624,-126.038,161.682
0.335,-3.521,1.390,-270.996,-11.719,194.641
0.600,-3.053,1.889,-278.564,55.603,213.562
1.603,-2.117,2.838,-263.794,33.264,216.125
2.293,-1.617,3.126,-246.338,38.330,208.130
3.882,-0.932,4.111,-173.828,-30.945,161.255
4.294,-0.555,3.890,-82.764,-49.866,97.595
2.957,-0.882,1.934,78.430,-6.958,-113.342
1.517,-0.979,1.119,99.609,54.443,-210.632
-0.755,-0.916,0.417,79.651,152.466,-266.907
-1.312,-0.765,0.527,47.668,163.940,-236.572
-1.513,-0.640,0.583,33.264,127.930,-154.846
-1.552,-0.466,0.561,33.569,117.004,-129.456
-1.686,-0.274,0.382,26.733,92.407,-88.074
-1.666,-0.209,0.281,17.029,73.914,-63.782
-1.563,-0.162,0.239,-9.277,19.470,-18.433
-1.180,-0.127,0.350,-23.560,-6.592,0.244
-0.948,-0.163,0.458,-35.828,-26.428,17.578
-0.511,-0.238,0.775,-51.819,-32.410,35.400
-0.351,-0.281,0.953,-55.176,-26.550,34.790
-0.199,-0.347,1.266,-53.223,-13.977,23.315
-0.166,-0.358,1.363,-46.387,-17.883,19.470
-0.196,-0.359,1.442,-30.090,-23.926,4.272
-0.214,-0.325,1.411,-21.667,-26.794,3.723
-0.165,-0.271,1.275,-3.174,-30.579,6.104
-0.121,-0.242,1.192,2.808,-35.156,7.507
-0.052,-0.201,1.002,10.010,-34.363,5.371
-0.041,-0.193,0.922,9.155,-30.945,3.479
-0.052,-0.184,0.896,5.432,-28.076,1.831
-0.073,-0.225,0.925,-3.784,-26.062,-3.723
-0.049,-0.149,0.924,-10.864,-28.931,-7.629
-0.102,-0.186,0.986,-11.047,-22.705,-5.981
-0.096,-0.191,1.023,-13.916,-20.386,-4.150
-0.090,-0.187,1.067,-14.526,-19.653,-1.343
-0.069,-0.187,1.088,-14.954,-20.386,0.854
-0.037,-0.208,1.093,-11.353,-21.423,5.188
-0.020,-0.190,1.094,-11.536,-23.315,5.676
0.002,-0.209,1.085,-10.681,-23.560,9.277
0.034,-0.182,1.103,-11.169,-21.179,10.254
0.044,-0.176,1.100,-11.230,-18.860,9.155
0.038,-0.176,1.047,-11.841,-18.127,9.949
0.059,-0.188,1.059,-13.306,-16.602,11.780
0.115,-0.181,1.054,-15.808,-12.329,12.268
0.127,-0.180,1.068,-16.174,-10.864,9.399
0.130,-0.193,1.076,-16.663,-10.437,6.592
0.132,-0.196,1.090,-16.357,-11.108,5.310
0.113,-0.204,1.114,-14.832,-11.902,-0.916
0.102,-0.214,1.123,-13.672,-12.451,-3.174
0.087,-0.212,1.124,-14.038,-12.817,-4.333
0.077,-0.200,1.135,-11.780,-13.062,-8.667
0.055,-0.168,1.147,-10.986,-12.695,-12.085
-0.008,-0.163,1.124,-10.925,-7.019,-13.000
-0.031,-0.136,1.134,-9.827,-4.761,-12.817
-0.064,-0.147,1.134,-9.216,-1.953,-12.756
-0.079,-0.144,1.127,-8.423,0.977,-12.695
-0.091,-0.160,1.118,-8.667,5.432,-10.193
-0.089,-0.158,1.104,-8.118,6.104,-8.545
-0.079,-0.157,1.109,-9.460,6.775,-5.005
-0.065,-0.151,1.113,-8.789,5.371,-3.723
-0.052,-0.149,1.106,-9.155,2.930,-2.869
-0.035,-0.127,1.110,-9.338,-0.854,-2.991
-0.046,-0.125,1.109,-8.728,-0.610,-1.709
-0.056,-0.102,1.109,-7.935,0.793,-0.671
-0.067,-0.112,1.098,-6.531,2.441,0.000
-0.064,-0.118,1.093,-6.409,3.418,0.977
-0.051,-0.124,1.087,-6.897,5.676,4.150
-0.042,-0.129,1.086,-7.202,5.676,5.371
-0.017,-0.152,1.084,-5.981,0.671,7.446
-0.001,-0.139,1.084,-6.042,-2.930,7.629
0.009,-0.131,1.070,-5.676,-6.836,7.935
0.047,-0.123,1.045,-4.150,-12.878,7.141
0.065,-0.117,1.019,-4.211,-13.672,6.226
0.075,-0.111,0.997,-3.662,-13.062,2.991
0.090,-0.111,0.968,-4.333,-11.230,1.221
0.076,-0.105,0.978,-4.639,-7.629,-0.305
0.050,-0.113,0.984,-7.507,3.052,-4.028
0.029,-0.113,0.995,-9.766,4.883,-5.249
0.022,-0.121,0.998,-10.925,5.615,-5.859
0.020,-0.107,1.028,-10.986,4.395,-4.883
0.035,-0.115,1.038,-10.986,0.854,-5.981
0.005,-0.122,1.042,-10.803,-3.357,-8.484
-0.010,-0.108,1.040,-9.094,-4.395,-8.057
-0.019,-0.121,1.017,-8.057,-3.906,-7.568
-0.016,-0.129,1.016,-8.484,-3.723,-7.935
-0.021,-0.124,1.022,-10.071,-3.052,-7.080
-0.004,-0.131,1.022,-10.559,-0.366,-7.019
0.014,-0.127,1.020,-11.414,1.465,-7.996
0.009,-0.128,1.048,-11.902,5.554,-10.437
0.004,-0.128,1.054,-11.597,6.470,-12.085
-0.008,-0.135,1.065,-11.597,8.118,-12.207
-0.029,-0.141,1.081,-11.658,7.385,-12.817
-0.051,-0.141,1.080,-9.583,3.967,-12.756
-0.096,-0.144,1.097,-9.399,0.000,-12.817
-0.095,-0.139,1.087,-7.812,-1.404,-12.268
-0.076,-0.116,1.045,-5.493,-2.869,-7.629
-0.046,-0.120,1.037,-5.310,-0.793,-6.042
0.003,-0.095,1.022,-5.249,1.099,-4.150

-0.160,-2.371,0.359,-230.652,-229.126,114.929
-0.139,-2.710,0.619,-211.853,-229.370,147.034
0.093,-3.344,0.802,-180.115,-96.069,201.721
0.368,-3.460,0.945,-181.335,10.254,211.548
0.752,-3.026,1.675,-218.506,242.676,204.468
0.963,-2.522,2.274,-239.990,312.622,185.608
1.424,-1.624,3.338,-245.972,246.948,148.621
1.835,-1.277,3.709,-223.755,134.033,134.399
2.714,-0.652,3.997,-97.351,-115.723,92.285
2.860,-0.590,3.436,-26.794,-163.025,28.992
1.932,-0.818,1.946,80.505,-78.369,-118.591
1.078,-0.845,1.417,88.928,-8.301,-181.824
-0.453,-0.762,0.892,92.651,103.760,-225.769
-0.867,-0.672,0.890,78.674,128.357,-208.069
-1.192,-0.573,0.808,66.406,111.023,-153.503
-1.245,-0.490,0.705,64.087,87.158,-129.150
-1.143,-0.260,0.408,57.068,43.945,-87.891
-1.116,-0.177,0.312,47.546,30.090,-74.890
-1.080,-0.056,0.280,21.729,3.357,-53.040
-1.062,-0.037,0.305,9.277,-2.075,-42.053
-0.995,-0.038,0.359,-3.662,-8.606,-28.870
-0.805,-0.087,0.583,-25.085,-17.334,-3.723
-0.682,-0.119,0.709,-32.471,-21.301,5.432
-0.432,-0.232,0.963,-39.978,-21.301,18.311
-0.359,-0.207,1.107,-37.048,-27.527,26.001
-0.164,-0.280,1.247,-29.846,-49.011,23.560
-0.079,-0.299,1.227,-27.954,-34.668,20.935
-0.010,-0.249,1.182,-16.235,-15.564,20.264
0.028,-0.241,1.145,-10.925,-17.395,20.203
0.093,-0.192,1.051,-2.625,-27.039,17.395
0.117,-0.184,0.996,-0.549,-28.442,15.076
0.178,-0.137,0.896,-5.615,-32.104,6.409
0.100,-0.144,0.938,-4.211,-29.724,1.953
0.082,-0.128,0.947,-7.690,-30.457,-0.549
0.020,-0.152,0.975,-10.803,-27.222,-2.686
-0.004,-0.143,0.998,-12.146,-26.917,-2.625
0.001,-0.139,1.021,-13.123,-23.254,2.197
0.021,-0.121,1.045,-12.695,-21.851,4.517
0.061,-0.100,1.059,-13.611,-18.555,8.545
0.067,-0.107,1.061,-14.221,-16.846,9.583
0.092,-0.099,1.068,-14.160,-14.160,9.033
0.104,-0.101,1.106,-13.611,-9.583,8.301
0.111,-0.093,1.121,-14.954,-10.376,7.446
0.107,-0.101,1.120,-11.902,-10.864,5.920
0.114,-0.102,1.116,-12.024,-13.123,5.676
0.130,-0.097,1.088,-12.512,-15.320,4.211
0.133,-0.097,1.079,-13.062,-17.822,3.723
0.145,-0.083,1.059,-11.658,-19.043,3.662
0.162,-0.071,1.041,-12.573,-17.517,2.747
0.155,-0.070,1.032,-15.503,-17.029,1.831
0.129,-0.074,1.058,-17.517,-13.245,0.000
0.127,-0.064,1.076,-19.897,-11.108,-1.160
0.099,-0.082,1.114,-20.142,-6.836,-2.014
0.087,-0.071,1.159,-20.142,-4.150,-2.319
0.080,-0.074,1.183,-19.165,-2.869,-1.648
0.083,-0.093,1.164,-14.526,-1.648,1.221
0.075,-0.082,1.160,-14.038,-1.709,0.549
0.065,-0.044,1.115,-12.146,-3.357,0.244
0.066,-0.038,1.087,-12.878,-4.211,1.526
0.061,-0.057,1.091,-14.099,-1.648,2.075
0.064,-0.068,1.119,-15.808,-0.122,1.892
0.063,-0.065,1.152,-15.991,2.441,2.075
0.066,-0.064,1.151,-16.479,1.465,2.014
0.067,-0.072,1.160,-16.174,1.648,3.235
0.082,-0.078,1.141,-15.991,1.831,3.113
0.099,-0.087,1.118,-14.526,1.953,4.822
0.127,-0.085,1.099,-13.672,2.502,4.578
0.125,-0.090,1.096,-12.573,6.409,1.892
0.129,-0.091,1.080,-12.451,7.385,-0.305
0.115,-0.089,1.082,-12.146,9.338,-2.563
0.084,-0.100,1.070,-11.536,10.803,-3.052
0.071,-0.099,1.069,-12.573,10.559,-2.747
0.052,-0.100,1.087,-12.268,8.179,-2.991
0.056,-0.108,1.092,-11.475,5.615,-3.052
0.040,-0.112,1.104,-10.437,4.150,-3.784
0.027,-0.090,1.078,-8.850,1.953,-5.066
0.034,-0.094,1.062,-6.470,1.221,-2.747
0.021,-0.095,1.043,-7.629,-2.014,-3.296
0.026,-0.096,1.035,-7.507,-2.319,-3.418
0.028,-0.090,1.037,-7.080,-2.747,-2.502
0.010,-0.087,1.015,-6.653,-1.221,-3.784
-0.010,-0.084,1.009,-7.568,-0.671,-4.578
-0.025,-0.087,0.999,-7.629,-0.122,-3.662
-0.023,-0.081,1.010,-8.667,1.099,-2.197
-0.021,-0.087,1.012,-8.850,1.526,-1.343
-0.028,-0.069,1.022,-10.559,-0.671,-1.038
-0.032,-0.068,1.025,-10.620,-2.319,-0.854
-0.018,-0.081,1.010,-11.841,-4.089,3.174
-0.014,-0.072,1.010,-11.230,-5.371,4.211
-0.002,-0.065,0.993,-12.268,-9.155,4.761
0.016,-0.052,0.980,-12.573,-9.277,5.859
0.005,-0.048,0.994,-14.648,-9.216,5.371
0.005,-0.059,1.013,-15.747,-8.484,6.042
0.002,-0.060,1.019,-17.273,-7.751,7.507
0.018,-0.077,1.017,-17.883,-6.592,7.507
0.025,-0.063,1.018,-18.860,-6.226,8.484
0.028,-0.076,1.029,-20.386,-8.240,8.545
0.044,-0.075,1.052,-19.958,-10.742,8.972
0.045,-0.066,1.061,-20.386,-13.733,9.399
0.089,-0.059,1.062,-19.409,-15.625,9.827
0.100,-0.054,1.064,-19.104,-15.686,9.338
0.126,-0.064,1.084,-16.846,-14.038,5.432
0.115,-0.073,1.086,-15.137,-11.230,3.418
0.106,-0.076,1.086,-13.672,-9.216,2.075
0.076,-0.080,1.079,-14.526,-7.141,-2.319
0.070,-0.095,1.087,-14.038,-7.996,-1.831
0.065,-0.101,1.081,-15.198,-11.902,-3.601
0.074,-0.104,1.101,-15.564,-15.442,-2.869
0.092,-0.104,1.113,-15.503,-24.048,-5.066
0.097,-0.098,1.106,-16.357,-28.748,-6.042
0.123,-0.100,1.101,-15.869,-34.729,-6.348
0.129,-0.108,1.101,-15.686,-34.729,-6.653
0.149,-0.108,1.096,-16.113,-30.334,-10.925
0.130,-0.121,1.093,-15.686,-26.428,-12.146
0.123,-0.109,1.086,-14.832,-22.156,-11.719
0.113,-0.118,1.063,-14.709,-14.771,-12.756
0.108,-0.116,1.053,-14.832,-10.925,-11.719
0.104,-0.078,1.024,-15.137,-8.667,-11.536
0.101,-0.074,1.023,-15.930,-9.827,-11.902
