aX,aY,aZ,gX,gY,gZ
-0.124,-0.924,0.262,-11.963,16.541,13.611
-0.175,-0.953,0.281,-13.367,6.348,7.935
-0.194,-0.978,0.292,-15.564,1.465,4.883
-0.23,-0.99,0.299,-19.47,-2.625,3.052
-0.247,-1.001,0.31,-21.667,0.061,1.099
-0.249,-0.969,0.301,-25.94,5.92,0.366
-0.205,-0.909,0.27,-26.184,6.775,1.831
-0.155,-0.87,0.242,-18.372,-3.235,-2.441
-0.181,-0.944,0.261,-16.907,-13.367,-12.024
-0.209,-0.994,0.298,-15.93,-17.639,-19.348
-0.203,-1.006,0.293,-16.357,-12.146,-16.235
-0.186,-0.967,0.296,-18.921,-6.104,-8.484
-0.184,-0.984,0.279,-16.296,-1.343,-0.122
-0.154,-0.902,0.251,-19.287,-0.977,4.333
-0.158,-0.874,0.238,-17.944,-4.761,3.662
-0.198,-0.878,0.223,-17.273,-12.695,-2.014
-0.246,-0.887,0.237,-12.329,-14.16,-4.333
-0.238,-0.911,0.245,-9.155,-6.775,-3.601
-0.237,-0.961,0.273,-7.629,-2.136,-2.319
-0.212,-0.987,0.261,-7.568,5.127,2.869
-0.183,-0.986,0.27,-10.01,5.981,5.188
-0.178,-0.954,0.251,-17.151,1.038,4.944
-0.163,-0.943,0.241,-20.874,-6.653,1.648
-0.212,-0.92,0.25,-20.203,-14.648,-3.906
-0.24,-0.91,0.269,-15.076,-14.709,-3.601
-0.22,-0.948,0.262,-5.432,-7.751,2.625
-0.225,-0.982,0.269,-3.235,-4.822,7.812
-0.203,-0.979,0.243,-3.723,-6.348,9.033
-0.192,-0.993,0.255,-7.69,-10.071,1.892
-0.22,-0.979,0.277,-13.306,-15.808,-5.066

-0.111,-0.989,0.224,-7.935,-4.578,-0.916
-0.1,-1.0,0.209,-9.094,-4.883,-1.526
-0.114,-1.01,0.217,-11.658,-6.409,-2.319
-0.115,-0.984,0.226,-12.329,-5.371,-2.258
-0.111,-0.962,0.204,-10.498,-4.517,-1.831
-0.12,-0.956,0.209,-8.728,-4.944,-1.892
-0.098,-0.957,0.208,-6.592,-5.92,-0.122
-0.108,-0.963,0.207,-4.7,-8.423,1.831
-0.124,-0.962,0.216,-5.981,-10.376,-0.488
-0.154,-0.975,0.249,-5.676,-8.301,-1.099
-0.144,-0.967,0.263,-6.165,-5.005,-1.038
-0.126,-0.972,0.237,-3.967,-2.075,-0.977
-0.119,-0.988,0.235,-5.615,-4.517,-3.174
-0.119,-0.975,0.236,-7.629,-10.742,-2.625
-0.128,-0.967,0.243,-8.911,-12.573,-2.136
-0.12,-0.974,0.257,-8.972,-12.329,-4.272
-0.123,-0.974,0.265,-9.949,-10.193,-4.944
-0.121,-0.983,0.276,-9.399,-9.399,-2.808
-0.118,-0.948,0.272,-6.104,-6.348,0.916
-0.11,-0.974,0.273,-6.47,-7.568,-0.488
-0.116,-0.951,0.295,-10.559,-5.737,1.404
-0.146,-0.987,0.23,-9.949,-9.338,-6.653
-0.096,-0.958,0.29,-10.925,-5.371,-2.014
-0.124,-0.977,0.244,-9.277,-9.399,-6.897
-0.151,-0.988,0.302,-11.536,-6.47,-7.385
-0.136,-0.977,0.245,-10.071,3.296,-1.892
-0.145,-0.948,0.276,-12.268,-2.93,-2.625
-0.106,-0.932,0.227,-8.484,0.122,-3.296
-0.107,-0.958,0.262,-10.62,10.376,-2.808
-0.119,-0.969,0.264,-10.559,8.179,-3.967

0.081,-1.024,0.16,-11.78,19.958,4.456
0.084,-1.012,0.166,-7.141,3.906,-2.319
0.095,-1.004,0.179,-8.484,-3.601,-3.357
0.102,-1.012,0.172,-11.963,-11.475,0.977
0.124,-0.989,0.176,-13.794,-14.099,-0.549
0.126,-1.002,0.193,-11.169,-14.832,-1.648
0.1,-0.966,0.174,-8.484,-13.916,-6.104
0.082,-0.975,0.161,-9.277,-10.437,-7.446
0.077,-0.973,0.155,-10.315,-5.981,-6.775
0.069,-0.958,0.171,-11.841,0.671,-3.601
0.06,-0.946,0.207,-15.869,-4.15,0.183
0.115,-0.954,0.238,-17.456,-2.808,0.671
0.122,-0.96,0.249,-15.259,-2.747,-3.723
0.101,-0.969,0.221,-13.123,-4.028,-7.69
0.085,-0.975,0.166,-11.658,-0.61,-8.728
0.069,-0.989,0.165,-16.907,1.282,-3.113
0.083,-1.027,0.145,-19.775,4.456,0.122
0.084,-1.003,0.182,-17.7,13.916,-2.747
0.062,-1.007,0.205,-16.602,12.085,-3.906
0.098,-1.013,0.197,-20.569,1.831,8.911
0.086,-1.014,0.157,-16.724,1.465,0.427
0.059,-1.005,0.173,-19.592,-4.883,0.793
0.097,-1.002,0.184,-19.47,-5.493,0.61
0.091,-1.026,0.195,-13.428,-5.737,-3.052
0.079,-0.991,0.19,-11.658,-3.723,-5.737
0.078,-0.964,0.176,-12.268,-1.038,-7.324
0.067,-0.964,0.192,-14.465,-4.15,-1.465
0.09,-0.966,0.17,-14.771,-6.958,-0.366
0.11,-1.007,0.155,-15.32,-11.719,0.183
0.111,-1.003,0.167,-9.216,-9.155,-3.174

0.022,-0.957,0.11,-14.587,-0.61,-9.216
0.039,-0.973,0.112,-15.076,-0.183,-7.69
0.019,-1.005,0.103,-14.832,1.282,-6.165
-0.027,-1.0,0.072,-14.099,-1.648,-6.958
-0.04,-0.935,0.105,-14.526,-4.395,-5.31
0.001,-0.932,0.097,-15.503,-5.859,-3.845
0.017,-0.943,0.075,-17.395,-1.526,-5.188
0.035,-0.977,0.09,-18.311,1.709,-5.859
0.055,-1.016,0.111,-15.93,4.028,-9.155
0.062,-1.027,0.112,-9.155,0.916,-12.39
0.049,-0.998,0.089,1.587,0.916,-19.958
0.059,-0.971,0.104,1.221,-1.221,-18.433
0.109,-0.967,0.106,-2.563,-2.38,-17.395
0.116,-1.002,0.114,-6.287,-0.488,-17.456
0.094,-1.055,0.108,-7.812,1.038,-15.869
0.085,-1.065,0.104,-4.883,0.854,-17.517
0.042,-1.038,0.065,-0.977,-3.174,-18.677
0.038,-1.0,0.104,-1.038,-7.202,-16.235
0.102,-0.997,0.114,-4.028,-10.986,-13.184
0.112,-0.988,0.141,-5.615,-10.071,-14.099
0.087,-1.028,0.153,-4.272,-7.935,-15.564
0.095,-1.025,0.113,-5.371,-2.93,-13.977
0.093,-1.034,0.131,-6.104,-2.441,-10.498
0.059,-1.026,0.155,-2.136,-1.404,-15.015
0.038,-0.981,0.149,1.587,-3.357,-15.93
0.078,-0.949,0.185,-1.892,-4.761,-15.442
0.101,-0.941,0.188,-9.521,-2.93,-12.573
0.113,-0.957,0.178,-15.625,0.244,-12.634
0.085,-1.003,0.153,-16.907,6.47,-14.038
0.077,-0.99,0.166,-18.799,8.301,-11.902

0.173,-0.98,-0.038,5.188,-3.296,-23.987
0.144,-0.942,-0.019,8.606,-1.648,-26.55
0.228,-0.877,-0.042,9.094,-1.343,-25.574
0.284,-0.89,-0.059,4.333,-2.808,-25.879
0.296,-0.942,-0.074,-1.892,-2.686,-26.123
0.248,-0.969,-0.059,-6.287,-3.54,-30.762
0.214,-0.992,-0.061,-9.399,-8.301,-29.602
0.228,-0.996,-0.074,-10.681,-11.108,-28.687
0.225,-0.979,-0.057,-12.512,-13.489,-25.269
0.265,-1.01,-0.042,-11.78,-12.817,-24.17
0.263,-0.986,-0.035,-11.047,-11.292,-20.63
0.277,-0.993,-0.034,-8.606,-11.78,-15.869
0.306,-0.992,-0.038,-7.996,-13.0,-11.597
0.288,-0.985,-0.03,-8.545,-14.16,-10.132
0.3,-0.989,-0.024,-12.695,-15.808,-12.268
0.34,-0.993,-0.018,-12.634,-15.015,-11.902
0.354,-1.008,0.01,-9.216,-10.803,-12.329
0.352,-0.991,0.01,-5.249,-5.005,-13.672
0.319,-0.954,0.005,-2.441,-1.038,-7.08
0.335,-0.948,0.015,-3.54,-2.991,-0.366
0.323,-0.984,-0.005,-6.104,-5.493,-0.244
0.329,-1.018,0.007,-10.62,-7.263,-6.47
0.315,-1.007,-0.004,-9.521,-2.136,-9.521
0.319,-1.002,-0.006,-7.141,3.052,-8.362
0.357,-0.955,-0.024,2.197,13.489,-0.977
0.328,-0.861,-0.049,0.61,14.771,4.578
0.329,-0.879,-0.038,-10.254,2.014,-0.305
0.351,-0.912,-0.035,-14.587,-0.305,-6.897
0.279,-0.912,-0.044,-16.663,-3.662,-7.629
0.272,-0.92,-0.043,-15.137,-0.549,-3.052

0.207,-1.025,-0.01,-22.583,-10.01,-8.545
0.211,-1.019,-0.016,-23.56,-9.094,-6.042
0.208,-1.066,-0.021,-23.926,-8.301,-7.385
0.21,-1.056,-0.025,-20.691,-7.324,-8.423
0.224,-1.01,-0.009,-19.531,-5.493,-11.353
0.236,-0.979,-0.021,-17.395,-4.578,-11.597
0.25,-0.939,-0.004,-17.029,-2.625,-11.902
0.263,-0.92,-0.014,-18.616,-0.671,-11.719
0.236,-0.916,-0.0,-20.508,0.793,-6.592
0.221,-0.911,-0.016,-20.996,1.587,-4.7
0.212,-0.931,-0.014,-21.118,-0.549,1.709
0.185,-0.918,-0.031,-19.348,-1.099,4.822
0.198,-0.924,-0.035,-18.494,-4.089,4.15
0.194,-0.903,-0.041,-17.212,-5.493,5.737
0.167,-0.896,-0.059,-16.296,-8.057,9.155
0.185,-0.918,-0.052,-17.456,-10.681,11.536
0.212,-0.976,-0.079,-18.677,-8.85,16.235
0.233,-0.995,-0.073,-16.357,-6.042,16.968
0.227,-1.017,-0.075,-11.78,1.953,17.029
0.185,-0.986,-0.057,-7.263,7.568,16.357
0.118,-0.933,-0.053,-8.606,2.319,13.367
0.068,-0.941,-0.009,-12.207,-6.775,10.376
0.085,-0.974,-0.031,-8.057,-19.775,19.104
0.095,-0.975,-0.027,-8.85,-24.353,23.56
0.173,-1.042,-0.051,-9.644,-26.794,22.461
0.185,-1.06,-0.071,-7.935,-23.254,17.822
0.152,-1.041,-0.08,-9.766,-17.639,3.784
0.169,-0.985,-0.07,-8.911,-16.602,-7.812
0.141,-1.017,-0.04,-9.827,-13.062,-14.526
0.138,-1.008,-0.037,-7.202,-16.113,-15.076

-0.175,-0.927,0.275,-5.188,-16.235,4.883
-0.244,-0.946,0.246,10.193,-5.737,0.549
-0.3,-1.016,0.168,10.376,-4.7,4.883
-0.264,-1.027,0.098,1.099,-4.7,14.282
-0.179,-0.977,0.091,-7.935,-4.517,12.207
-0.173,-0.957,0.101,-20.813,-6.592,5.188
-0.204,-0.871,0.161,-24.963,-8.057,2.808
-0.236,-0.846,0.181,-21.667,-5.981,3.723
-0.29,-0.884,0.15,-11.963,0.977,4.822
-0.311,-0.908,0.124,-11.963,3.662,8.972
-0.301,-0.972,0.108,-21.545,-0.671,15.259
-0.244,-0.985,0.167,-28.564,-6.165,17.151
-0.24,-0.942,0.229,-26.978,-9.644,8.85
-0.311,-0.948,0.178,-16.174,-2.441,3.662
-0.346,-0.933,0.035,-11.23,5.371,8.423
-0.337,-0.927,0.0,-17.212,6.226,14.893
-0.289,-0.953,0.105,-37.109,-8.789,22.583
-0.241,-0.977,0.235,-36.621,-10.681,21.484
-0.226,-0.958,0.253,-13.184,-2.136,10.742
-0.304,-0.943,0.121,-0.549,8.545,4.333
-0.355,-0.945,0.052,-13.306,-4.089,13.733
-0.306,-0.984,0.168,-22.705,-15.564,21.362
-0.219,-1.031,0.294,-15.32,-19.165,21.057
-0.208,-1.009,0.32,-2.808,-17.334,13.794
-0.263,-1.028,0.195,19.653,-4.944,-2.014
-0.356,-0.993,0.011,27.039,14.282,-8.606
-0.401,-0.925,-0.158,5.371,14.648,-0.854
-0.408,-0.902,-0.059,-27.161,0.671,10.559
-0.282,-0.982,0.283,-50.903,-22.827,22.4
-0.2,-1.048,0.438,-36.926,-28.992,14.038

-0.126,-1.002,0.006,-16.418,-9.949,-1.465
-0.162,-1.029,0.019,-19.653,-10.132,-1.709
-0.164,-0.972,0.024,-27.405,-13.184,0.732
-0.155,-0.948,0.091,-31.311,-19.714,3.54
-0.14,-0.972,0.178,-20.447,-26.306,6.226
-0.163,-1.041,0.15,0.549,-16.418,4.578
-0.154,-1.056,-0.036,11.23,-7.263,6.47
-0.166,-1.059,-0.089,2.258,-7.324,8.545
-0.175,-1.069,-0.006,-16.113,-19.165,7.69
-0.164,-1.054,0.081,-16.296,-20.935,6.042
-0.172,-1.055,0.077,-3.54,-13.367,6.409
-0.16,-1.051,0.015,3.113,-9.094,6.287
-0.146,-1.045,-0.035,0.183,-8.179,4.639
-0.168,-1.004,-0.048,-5.066,-6.531,2.258
-0.177,-0.962,0.022,-13.55,-11.719,5.127
-0.147,-0.965,0.083,-11.475,-13.062,5.981
-0.163,-0.997,0.019,5.798,0.427,1.892
-0.151,-0.975,-0.069,8.057,6.897,-0.732
-0.178,-0.902,-0.111,-5.92,4.15,-1.587
-0.197,-0.901,-0.038,-17.456,0.916,1.038
-0.151,-0.936,0.104,-19.104,-0.244,4.7
-0.135,-0.979,0.147,-9.583,-0.549,3.906
-0.111,-1.0,0.064,2.502,5.981,-3.845
-0.148,-0.967,-0.024,-0.305,5.859,-7.751
-0.178,-0.928,0.012,-15.198,-0.122,-8.667
-0.179,-0.923,0.062,-20.508,-4.15,-7.507
-0.181,-0.915,0.148,-17.517,-5.005,-5.249
-0.193,-0.95,0.163,-11.414,-3.784,-2.93
-0.191,-1.018,0.074,-1.038,6.592,2.38
-0.146,-0.986,0.008,-5.798,8.789,3.967
