aX,aY,aZ,gX,gY,gZ
3.621,1.052,-0.073,-28.931,7.385,483.765
7.288,3.501,-1.064,12.268,-23.438,157.776
6.173,2.913,-1.318,-18.005,51.27,-183.105
2.778,1.058,0.398,-4.761,13.55,-461.853
0.874,-0.177,1.065,42.725,-72.876,-516.235
-2.43,-1.953,0.509,68.359,-45.593,-486.45
-3.826,-2.577,0.941,25.024,-23.56,-380.737
-5.763,-3.508,0.659,26.489,7.08,-173.889
-6.215,-3.671,0.385,-1.099,21.851,8.667
-5.237,-3.044,1.307,-34.363,52.246,286.316
-3.427,-2.585,1.222,15.869,21.729,427.734
-1.28,-1.638,0.75,32.471,22.522,521.24
0.967,-0.362,0.631,6.836,62.439,532.043
4.526,1.91,-0.695,27.71,55.786,422.974
7.454,3.433,-2.16,9.766,44.006,221.863
5.948,2.767,-1.629,-60.059,74.951,-265.198
3.372,1.337,-0.019,-43.701,-6.348,-451.599
0.005,-0.752,1.06,30.579,-92.651,-538.147
-1.965,-1.786,0.996,38.33,-70.129,-498.901
-4.05,-2.575,1.265,47.974,-86.548,-340.271
-4.835,-3.137,0.692,36.743,-54.321,-220.337
-6.315,-3.565,0.555,-34.912,40.71,-34.546
-5.892,-3.152,1.336,-58.777,63.721,154.663
-3.392,-2.316,1.163,8.667,24.719,407.837
-1.084,-1.571,0.206,5.859,40.527,470.154
1.337,0.543,0.665,-75.684,141.296,414.612
3.348,2.081,0.147,-52.917,103.943,368.835
7.593,3.844,-1.914,9.583,-27.283,89.417
6.409,2.887,-1.738,-32.959,-14.526,-254.15
2.525,0.635,0.585,-25.574,-85.754,-523.682

3.075,2.378,-0.729,-10.559,29.785,171.57
4.314,2.709,-1.814,4.15,-48.523,-39.185
3.263,1.905,-1.317,-38.879,-60.791,-224.731
0.331,0.323,0.606,-67.993,-64.27,-380.066
-1.464,-0.585,1.492,-37.72,-76.477,-366.211
-3.132,-1.738,1.349,21.24,-86.365,-255.371
-4.017,-2.294,1.113,16.174,-50.415,-175.842
-4.794,-2.527,1.35,5.005,-3.662,-13.123
-4.542,-2.31,1.496,27.222,13.55,120.3
-2.199,-1.648,0.299,47.424,41.565,272.705
-0.705,-0.638,0.095,-19.958,88.501,260.62
0.841,1.022,0.155,-41.565,84.656,229.492
2.414,2.191,-0.33,-34.363,45.044,182.861
4.112,2.815,-1.627,-9.827,-17.883,-18.066
3.065,2.103,-1.122,-54.077,-28.198,-191.284
0.566,0.597,0.55,-40.955,-79.529,-314.209
-0.659,-0.364,1.019,-4.089,-110.107,-301.392
-2.326,-1.763,0.966,19.104,-94.543,-260.742
-3.549,-2.407,1.062,2.869,-63.904,-205.322
-4.476,-2.883,0.965,-26.428,-16.296,-52.917
-4.618,-2.676,1.335,-42.725,22.4,63.354
-3.359,-1.845,1.626,1.587,42.114,260.132
-1.739,-1.239,0.996,19.897,51.819,344.238
0.188,0.307,0.625,-34.424,106.689,311.584
1.418,1.612,0.725,-34.668,86.67,264.954
3.619,3.004,-0.682,12.634,19.409,152.039
5.131,3.338,-1.737,15.076,-31.433,-7.507
3.764,1.838,-1.076,-41.626,-68.97,-331.238
1.286,0.333,0.323,-37.048,-93.506,-440.735
-1.154,-1.173,1.176,29.663,-166.321,-371.033

1.638,0.535,0.132,-41.26,-99.243,-388.367
-0.985,-0.97,0.935,23.438,-144.165,-374.695
-2.308,-1.776,0.938,17.944,-115.601,-337.952
-4.427,-2.801,0.948,-5.432,-37.903,-244.812
-5.537,-3.124,1.035,-26.55,-1.587,-121.033
-5.448,-2.816,1.195,-34.485,35.522,117.798
-4.326,-2.328,1.27,-15.991,51.453,269.775
-1.342,-1.157,0.577,-26.367,89.844,386.169
-0.084,-0.11,0.68,-60.547,136.536,341.553
0.939,1.086,0.664,-79.468,166.321,260.681
1.998,2.07,0.672,-55.054,136.719,224.06
4.681,2.973,-1.044,33.508,-6.592,111.816
5.01,2.671,-1.769,20.691,-54.626,-86.06
2.484,1.069,-0.081,-22.339,-84.351,-368.835
0.44,-0.014,1.075,6.653,-112.183,-425.964
-0.675,-0.955,0.94,67.993,-138.733,-386.414
-2.471,-2.213,0.708,58.594,-111.511,-356.384
-4.057,-3.048,0.533,13.489,-52.856,-234.619
-5.18,-3.24,0.866,-21.973,-33.203,-84.229
-5.099,-3.039,0.894,-27.71,15.32,133.179
-3.933,-2.409,1.081,-16.541,23.621,280.762
-2.177,-1.649,0.774,-28.687,61.829,386.597
0.53,0.116,0.378,-66.65,101.135,345.398
1.583,1.328,0.466,-83.74,117.065,266.357
4.205,3.387,0.239,-61.157,60.547,164.612
5.752,3.483,-1.291,10.925,-36.804,-5.859
3.742,1.691,-0.197,-35.889,-71.655,-358.093
0.95,-0.022,0.828,6.409,-118.53,-458.618
-2.044,-1.943,1.151,41.626,-140.259,-399.109
-3.258,-2.875,0.836,42.969,-120.361,-310.913

-2.427,-2.358,0.664,7.385,-33.264,-396.362
-4.723,-3.457,0.768,-11.414,-25.757,-226.44
-5.395,-3.699,0.661,-29.053,-8.789,-69.946
-5.441,-3.292,1.326,-32.715,19.287,177.429
-4.116,-2.629,1.345,0.061,3.418,349.976
-2.217,-1.687,1.279,21.545,47.729,509.338
-0.953,-1.165,0.908,22.888,100.342,555.847
0.436,-0.434,0.725,-42.908,180.908,512.085
3.231,1.662,0.772,-24.963,143.616,411.743
4.682,2.636,-0.451,26.794,78.247,169.739
5.791,3.055,-2.016,10.925,22.766,-32.166
5.071,2.421,-1.662,-49.072,-59.448,-344.36
2.279,0.418,0.278,-43.335,-98.022,-488.098
-0.095,-0.824,1.122,6.714,-69.824,-526.978
-3.33,-2.302,0.885,17.944,-61.768,-440.735
-4.49,-2.671,1.18,8.972,-62.988,-300.293
-5.588,-3.079,0.531,13.489,-35.95,-72.205
-5.327,-2.829,0.777,-6.775,-13.489,77.515
-4.272,-2.256,0.967,3.174,13.245,288.513
-2.479,-1.585,0.646,-0.854,19.287,392.517
0.727,0.318,0.374,-35.828,58.411,355.042
1.9,1.44,0.463,-66.162,114.807,241.699
2.872,2.687,0.423,-67.322,136.719,70.068
3.545,2.855,-0.267,-10.254,51.025,-23.865
3.359,2.017,-0.671,-1.892,-36.255,-227.722
2.122,0.861,-0.167,-7.446,-43.823,-359.375
-0.615,-0.745,0.613,26.062,-48.645,-422.913
-1.807,-1.651,0.191,72.571,-122.192,-347.473
-3.082,-2.502,0.048,-4.211,-89.478,-243.53
-3.98,-2.711,0.433,-36.743,-39.551,-166.138

-2.185,-1.21,1.682,91.37,30.762,368.103
-0.713,-0.318,1.122,71.899,96.924,379.15
0.745,0.832,0.325,4.028,199.524,290.283
1.76,1.755,0.68,-42.175,223.572,199.585
2.975,2.305,-0.858,33.997,97.534,84.961
4.327,2.385,-2.049,33.325,17.517,-47.852
3.514,1.013,-1.573,-29.541,-70.679,-324.28
0.991,-0.505,-0.375,-49.683,-77.271,-452.698
-1.709,-1.72,0.769,-26.611,-131.042,-369.446
-2.228,-2.126,0.86,-6.714,-138.977,-269.592
-3.717,-2.587,1.014,-41.016,-61.279,-158.447
-4.468,-2.767,1.383,-53.589,-21.667,-61.768
-4.991,-2.331,2.068,-45.532,37.354,133.972
-4.18,-1.865,2.124,3.723,50.232,281.372
-2.118,-1.136,1.284,52.063,58.533,449.768
-0.327,-0.387,0.663,-0.488,162.17,431.458
0.778,0.58,0.698,-38.025,213.623,313.538
1.274,1.178,0.689,-26.489,188.232,229.126
2.351,1.593,-0.629,9.827,107.727,124.329
3.29,2.026,-1.134,-0.732,45.105,37.292
4.083,1.906,-1.412,-16.418,-77.698,-160.217
3.111,1.008,-0.807,-30.273,-99.365,-333.069
0.042,-0.563,0.481,-32.715,-54.81,-467.834
-1.843,-1.458,0.634,10.681,-99.792,-411.804
-3.349,-2.113,0.982,17.09,-115.051,-242.126
-3.836,-2.379,0.729,11.475,-95.581,-138.855
-4.882,-2.484,1.2,-13.611,-36.621,12.39
-4.796,-2.28,1.521,3.906,-11.963,144.653
-3.186,-1.538,1.455,43.396,18.433,319.946
-1.385,-0.837,0.843,44.373,51.514,378.052

1.913,1.71,2.0,23.254,142.456,-248.169
2.817,2.244,2.487,70.801,52.368,-201.233
3.611,2.651,2.819,69.092,-11.475,-110.107
3.556,2.452,2.798,28.564,-50.842,19.104
2.594,1.776,2.176,-73.608,-93.323,180.298
1.618,1.179,1.44,-114.136,-104.919,246.155
0.539,0.198,1.047,-135.925,-121.765,255.188
0.135,-0.106,0.514,-110.84,-132.69,218.811
-0.285,-0.621,0.135,-44.25,-180.298,157.043
-0.507,-1.023,-0.231,-21.179,-182.007,126.16
-1.103,-1.764,-1.293,-78.003,-78.613,91.248
-1.533,-2.02,-2.333,-127.563,45.471,44.495
-1.746,-1.693,-2.675,-54.871,168.03,-101.196
-1.308,-1.066,-1.625,23.438,203.613,-186.462
-0.433,-0.048,0.08,49.072,237.122,-223.938
-0.01,0.477,0.679,34.973,230.164,-242.126
1.093,1.357,1.69,71.35,161.804,-260.01
2.182,2.083,2.541,121.521,81.909,-268.127
3.552,3.006,3.22,161.56,-16.052,-194.946
3.732,3.08,3.306,156.494,-84.961,-70.557
2.931,2.407,2.847,33.569,-136.597,164.49
2.225,1.843,2.229,-50.232,-152.466,292.053
0.595,0.806,0.937,-107.91,-161.743,359.619
-0.242,-0.001,0.372,-85.876,-159.79,308.716
-0.945,-1.08,-0.074,2.502,-216.919,215.515
-1.32,-1.833,-0.553,-13.611,-194.397,172.791
-2.034,-2.677,-2.387,-93.018,-22.156,86.975
-2.186,-2.658,-2.889,-75.256,72.998,-29.419
-1.582,-1.706,-1.525,7.141,166.626,-194.031
-0.938,-0.785,-0.237,18.738,214.783,-244.873

0.681,-1.177,-0.417,2.625,-198.059,-186.218
-0.161,-1.035,-1.108,15.93,-115.967,-216.125
-0.757,-0.681,-1.416,2.014,-73.975,-209.778
-1.938,0.357,-1.746,-57.434,-53.284,-116.089
-2.746,1.042,-1.807,-93.384,-40.039,-26.55
-3.235,1.788,-1.206,-86.609,68.481,99.67
-2.659,1.256,-0.824,-40.283,149.658,156.067
-0.986,0.194,0.009,-24.902,203.796,233.398
-0.097,-0.255,0.38,-47.974,165.344,251.526
0.436,-0.52,0.766,-78.796,104.675,272.095
1.176,-0.727,1.295,-59.021,94.116,262.268
3.146,-1.287,2.06,44.678,138.733,149.353
4.6,-1.647,2.327,102.661,151.428,47.363
5.315,-2.003,1.832,84.839,10.193,-40.283
4.906,-1.949,1.489,24.78,-136.047,-57.434
3.896,-1.838,1.146,-25.513,-254.456,-102.234
2.387,-1.69,0.45,-23.376,-271.667,-143.372
1.284,-1.658,-0.258,2.869,-170.288,-241.15
0.252,-1.363,-0.802,-6.714,-136.047,-258.179
-0.308,-0.891,-0.891,-25.757,-95.093,-250.854
-1.29,-0.075,-1.091,-47.18,-88.501,-205.444
-2.005,0.659,-1.127,-90.942,-75.5,-103.516
-3.35,1.733,-1.156,-82.092,0.488,-39.612
-3.45,1.917,-1.104,-37.598,73.914,54.382
-2.283,1.182,-0.362,-13.916,163.696,175.781
-1.065,0.549,0.24,-11.169,169.922,228.455
-0.016,-0.199,0.487,-36.804,123.596,264.954
0.224,-0.438,0.649,-68.97,68.054,292.786
1.288,-0.81,1.273,-26.855,80.139,269.531
2.744,-1.409,1.702,43.762,134.155,192.871

-3.971,2.888,0.829,-70.801,5.493,17.944
-3.327,2.352,1.064,-72.693,-60.608,126.282
-1.593,0.861,0.804,-62.5,-143.494,237.549
-0.462,-0.156,0.934,-85.632,-231.201,257.996
1.143,-1.425,0.549,-37.72,-225.525,226.929
2.622,-2.23,0.069,-4.028,-221.68,186.462
4.544,-2.839,-0.326,27.222,-177.246,60.608
5.003,-2.819,-0.771,49.988,-138.245,-41.443
4.978,-2.51,-1.463,38.147,-78.552,-142.395
4.132,-2.001,-1.841,19.531,-20.752,-229.431
1.884,-0.651,-2.009,4.822,109.558,-287.17
0.854,-0.077,-1.988,30.945,186.035,-272.766
0.004,0.392,-1.515,24.414,238.281,-207.581
-0.825,0.896,-0.981,-16.968,209.412,-185.608
-2.716,2.289,-0.151,-88.745,113.342,-131.348
-3.993,3.115,0.766,-124.329,46.326,-49.866
-3.769,2.512,1.303,-77.209,-15.93,159.79
-2.425,1.125,1.057,-60.852,-56.458,257.874
-0.256,-0.541,1.059,-87.341,-179.565,289.856
0.191,-0.877,1.116,-100.342,-231.323,254.211
1.892,-1.978,0.483,-6.775,-205.627,217.59
3.506,-2.737,-0.219,21.851,-198.608,166.687
4.602,-2.897,-0.365,21.973,-164.734,12.024
5.03,-2.731,-1.158,34.973,-129.333,-82.581
4.521,-2.174,-1.444,-0.061,-48.828,-183.96
2.665,-0.884,-1.825,2.502,28.198,-229.065
1.593,-0.266,-2.078,32.227,154.48,-221.313
0.981,0.054,-2.081,45.105,194.885,-169.556
0.443,0.271,-1.783,2.991,216.492,-164.612
-0.483,0.604,-0.695,-32.898,189.636,-148.438
